key1.keys,key1.rt,key2.keys,key2.rt,key2_2.keys,key2_2.rt,key2_3.keys,key2_3.rt,key3.keys,key3.rt,key4.keys,key4.rt,respP.keys,respP.corr,respP.rt,Practice.thisRepN,Practice.thisTrialN,Practice.thisN,Practice.thisIndex,Practice.ran,ssAmount,llAmount,llDelay,session,participant,date,expName,psychopyVersion,OS,frameRate,key5.keys,key5.rt,respT.keys,respT.corr,respT.rt,trials.thisRepN,trials.thisTrialN,trials.thisN,trials.thisIndex,trials.ran,ss_am,ss_del,ll_am,ll_del
space,4.2011,space,2.317515,space,1.384005,space,2.167355,left,3.150825,space,3.4021,left,1.0,10.551215,0.0,0.0,0.0,0.0,1.0,10000.0,109000.0,9.0,2,366,2020-11-11_11h29.40.700,tareaTDv3,2020.2.5,MacIntel,60,,,,,,,,,,,,,,
,,,,,,,,,,,,right,0.0,4.463205,0.0,1.0,1.0,1.0,1.0,25000.0,35000.0,150.0,2,366,2020-11-11_11h29.40.700,tareaTDv3,2020.2.5,MacIntel,60,,,,,,,,,,,,,,
,,,,,,,,,,,,left,0.0,4.26364,0.0,2.0,2.0,2.0,1.0,10000.0,19000.0,89.0,2,366,2020-11-11_11h29.40.700,tareaTDv3,2020.2.5,MacIntel,60,,,,,,,,,,,,,,
,,,,,,,,,,,,,,,,,,,,,,,2,366,2020-11-11_11h29.40.700,tareaTDv3,2020.2.5,MacIntel,60,g,100.34294,left,0.0,6.398515,0.0,0.0,0.0,24.0,1.0,10000.0,0.0,149000.0,89.0
,,,,,,,,,,,,,,,,,,,,,,,2,366,2020-11-11_11h29.40.700,tareaTDv3,2020.2.5,MacIntel,60,,,right,1.0,10.587735,0.0,1.0,1.0,13.0,1.0,10000.0,0.0,111000.0,30.0
,,,,,,,,,,,,,,,,,,,,,,,2,366,2020-11-11_11h29.40.700,tareaTDv3,2020.2.5,MacIntel,60,,,right,0.0,6.00867,0.0,2.0,2.0,79.0,1.0,25000.0,0.0,150000.0,61.0
,,,,,,,,,,,,,,,,,,,,,,,2,366,2020-11-11_11h29.40.700,tareaTDv3,2020.2.5,MacIntel,60,,,right,1.0,2.78126,0.0,3.0,3.0,74.0,1.0,25000.0,0.0,150000.0,29.0
,,,,,,,,,,,,,,,,,,,,,,,2,366,2020-11-11_11h29.40.700,tareaTDv3,2020.2.5,MacIntel,60,,,left,0.0,2.85174,0.0,4.0,4.0,72.0,1.0,25000.0,0.0,75000.0,31.0
,,,,,,,,,,,,,,,,,,,,,,,2,366,2020-11-11_11h29.40.700,tareaTDv3,2020.2.5,MacIntel,60,,,left,0.0,2.132775,0.0,5.0,5.0,82.0,1.0,25000.0,0.0,75000.0,90.0
,,,,,,,,,,,,,,,,,,,,,,,2,366,2020-11-11_11h29.40.700,tareaTDv3,2020.2.5,MacIntel,60,,,left,0.0,3.934795,0.0,6.0,6.0,83.0,1.0,25000.0,0.0,125000.0,89.0
,,,,,,,,,,,,,,,,,,,,,,,2,366,2020-11-11_11h29.40.700,tareaTDv3,2020.2.5,MacIntel,60,,,left,1.0,1.926595,0.0,7.0,7.0,68.0,1.0,25000.0,0.0,125000.0,9.0
,,,,,,,,,,,,,,,,,,,,,,,2,366,2020-11-11_11h29.40.700,tareaTDv3,2020.2.5,MacIntel,60,,,right,1.0,4.73557,0.0,8.0,8.0,48.0,1.0,5000.0,0.0,105000.0,60.0
,,,,,,,,,,,,,,,,,,,,,,,2,366,2020-11-11_11h29.40.700,tareaTDv3,2020.2.5,MacIntel,60,,,left,1.0,2.434255,0.0,9.0,9.0,62.0,1.0,25000.0,0.0,75000.0,5.0
,,,,,,,,,,,,,,,,,,,,,,,2,366,2020-11-11_11h29.40.700,tareaTDv3,2020.2.5,MacIntel,60,,,left,1.0,4.35177,0.0,10.0,10.0,6.0,1.0,10000.0,0.0,40000.0,10.0
,,,,,,,,,,,,,,,,,,,,,,,2,366,2020-11-11_11h29.40.700,tareaTDv3,2020.2.5,MacIntel,60,,,right,0.0,1.64485,0.0,11.0,11.0,81.0,1.0,25000.0,0.0,55000.0,90.0
,,,,,,,,,,,,,,,,,,,,,,,2,366,2020-11-11_11h29.40.700,tareaTDv3,2020.2.5,MacIntel,60,,,left,0.0,2.16748,0.0,12.0,12.0,88.0,1.0,25000.0,0.0,125000.0,149.0
,,,,,,,,,,,,,,,,,,,,,,,2,366,2020-11-11_11h29.40.700,tareaTDv3,2020.2.5,MacIntel,60,,,right,1.0,2.01452,0.0,13.0,13.0,9.0,1.0,10000.0,0.0,151000.0,11.0
,,,,,,,,,,,,,,,,,,,,,,,2,366,2020-11-11_11h29.40.700,tareaTDv3,2020.2.5,MacIntel,60,,,left,1.0,1.589035,0.0,14.0,14.0,63.0,1.0,25000.0,0.0,125000.0,4.0
,,,,,,,,,,,,,,,,,,,,,,,2,366,2020-11-11_11h29.40.700,tareaTDv3,2020.2.5,MacIntel,60,,,right,1.0,5.02762,0.0,15.0,15.0,49.0,1.0,5000.0,0.0,149000.0,59.0
,,,,,,,,,,,,,,,,,,,,,,,2,366,2020-11-11_11h29.40.700,tareaTDv3,2020.2.5,MacIntel,60,,,left,0.0,4.29698,0.0,16.0,16.0,45.0,1.0,5000.0,0.0,15000.0,61.0
,,,,,,,,,,,,,,,,,,,,,,,2,366,2020-11-11_11h29.40.700,tareaTDv3,2020.2.5,MacIntel,60,,,left,0.0,3.828545,0.0,17.0,17.0,5.0,1.0,10000.0,0.0,19000.0,11.0
,,,,,,,,,,,,,,,,,,,,,,,2,366,2020-11-11_11h29.40.700,tareaTDv3,2020.2.5,MacIntel,60,,,right,1.0,4.36279,0.0,18.0,18.0,31.0,1.0,5000.0,0.0,35000.0,6.0
,,,,,,,,,,,,,,,,,,,,,,,2,366,2020-11-11_11h29.40.700,tareaTDv3,2020.2.5,MacIntel,60,,,right,1.0,2.964865,0.0,19.0,19.0,61.0,1.0,25000.0,0.0,55000.0,6.0
,,,,,,,,,,,,,,,,,,,,,,,2,366,2020-11-11_11h29.40.700,tareaTDv3,2020.2.5,MacIntel,60,,,right,1.0,2.083125,0.0,20.0,20.0,34.0,1.0,5000.0,0.0,151000.0,4.0
,,,,,,,,,,,,,,,,,,,,,,,2,366,2020-11-11_11h29.40.700,tareaTDv3,2020.2.5,MacIntel,60,,,right,0.0,3.068015,0.0,21.0,21.0,86.0,1.0,25000.0,0.0,55000.0,151.0
,,,,,,,,,,,,,,,,,,,,,,,2,366,2020-11-11_11h29.40.700,tareaTDv3,2020.2.5,MacIntel,60,,,left,1.0,2.986565,0.0,22.0,22.0,44.0,1.0,5000.0,0.0,150000.0,30.0
,,,,,,,,,,,,,,,,,,,,,,,2,366,2020-11-11_11h29.40.700,tareaTDv3,2020.2.5,MacIntel,60,,,right,0.0,3.65129,0.0,23.0,23.0,28.0,1.0,10000.0,0.0,109000.0,149.0
,,,,,,,,,,,,,,,,,,,,,,,2,366,2020-11-11_11h29.40.700,tareaTDv3,2020.2.5,MacIntel,60,,,right,0.0,3.056165,0.0,24.0,24.0,27.0,1.0,10000.0,0.0,61000.0,150.0
,,,,,,,,,,,,,,,,,,,,,,,2,366,2020-11-11_11h29.40.700,tareaTDv3,2020.2.5,MacIntel,60,,,left,0.0,1.860065,0.0,25.0,25.0,51.0,1.0,5000.0,0.0,35000.0,89.0
,,,,,,,,,,,,,,,,,,,,,,,2,366,2020-11-11_11h29.40.700,tareaTDv3,2020.2.5,MacIntel,60,,,left,0.0,1.78087,0.0,26.0,26.0,56.0,1.0,5000.0,0.0,35000.0,150.0
,,,,,,,,,,,,,,,,,,,,,,,2,366,2020-11-11_11h29.40.700,tareaTDv3,2020.2.5,MacIntel,60,,,right,0.0,3.596665,0.0,27.0,27.0,25.0,1.0,10000.0,0.0,10000.0,150.0
,,,,,,,,,,,,,,,,,,,,,,,2,366,2020-11-11_11h29.40.700,tareaTDv3,2020.2.5,MacIntel,60,,,left,0.0,2.174935,0.0,28.0,28.0,75.0,1.0,25000.0,0.0,35000.0,60.0
,,,,,,,,,,,,,,,,,,,,,,,2,366,2020-11-11_11h29.40.700,tareaTDv3,2020.2.5,MacIntel,60,,,left,0.0,2.789845,0.0,29.0,29.0,17.0,1.0,10000.0,0.0,60000.0,60.0
,,,,,,,,,,,,,,,,,,,,,,,2,366,2020-11-11_11h29.40.700,tareaTDv3,2020.2.5,MacIntel,60,,,right,1.0,3.038845,0.0,30.0,30.0,8.0,1.0,10000.0,0.0,111000.0,10.0
,,,,,,,,,,,,,,,,,,,,,,,2,366,2020-11-11_11h29.40.700,tareaTDv3,2020.2.5,MacIntel,60,,,right,0.0,3.164115,0.0,31.0,31.0,84.0,1.0,25000.0,0.0,150000.0,89.0
,,,,,,,,,,,,,,,,,,,,,,,2,366,2020-11-11_11h29.40.700,tareaTDv3,2020.2.5,MacIntel,60,,,right,1.0,3.480855,0.0,32.0,32.0,69.0,1.0,25000.0,0.0,150000.0,9.0
,,,,,,,,,,,,,,,,,,,,,,,2,366,2020-11-11_11h29.40.700,tareaTDv3,2020.2.5,MacIntel,60,,,right,1.0,5.73001,0.0,33.0,33.0,42.0,1.0,5000.0,0.0,56000.0,29.0
,,,,,,,,,,,,,,,,,,,,,,,2,366,2020-11-11_11h29.40.700,tareaTDv3,2020.2.5,MacIntel,60,,,right,0.0,1.584335,0.0,34.0,34.0,41.0,1.0,5000.0,0.0,35000.0,31.0
,,,,,,,,,,,,,,,,,,,,,,,2,366,2020-11-11_11h29.40.700,tareaTDv3,2020.2.5,MacIntel,60,,,left,0.0,9.3602,0.0,35.0,35.0,12.0,1.0,10000.0,0.0,60000.0,29.0
,,,,,,,,,,,,,,,,,,,,,,,2,366,2020-11-11_11h29.40.700,tareaTDv3,2020.2.5,MacIntel,60,,,left,0.0,1.95551,0.0,36.0,36.0,58.0,1.0,5000.0,0.0,106000.0,152.0
,,,,,,,,,,,,,,,,,,,,,,,2,366,2020-11-11_11h29.40.700,tareaTDv3,2020.2.5,MacIntel,60,,,right,0.0,10.36686,0.0,37.0,37.0,65.0,1.0,25000.0,0.0,35000.0,11.0
,,,,,,,,,,,,,,,,,,,,,,,2,366,2020-11-11_11h29.40.700,tareaTDv3,2020.2.5,MacIntel,60,,,right,0.0,1.906485,0.0,38.0,38.0,26.0,1.0,10000.0,0.0,39000.0,150.0
,,,,,,,,,,,,,,,,,,,,,,,2,366,2020-11-11_11h29.40.700,tareaTDv3,2020.2.5,MacIntel,60,,,right,0.0,4.19709,0.0,39.0,39.0,22.0,1.0,10000.0,0.0,61000.0,89.0
,,,,,,,,,,,,,,,,,,,,,,,2,366,2020-11-11_11h29.40.700,tareaTDv3,2020.2.5,MacIntel,60,,,left,1.0,2.502225,0.0,40.0,40.0,66.0,1.0,25000.0,0.0,55000.0,11.0
,,,,,,,,,,,,,,,,,,,,,,,2,366,2020-11-11_11h29.40.700,tareaTDv3,2020.2.5,MacIntel,60,,,right,0.0,2.17419,0.0,41.0,41.0,46.0,1.0,5000.0,0.0,36000.0,61.0
,,,,,,,,,,,,,,,,,,,,,,,2,366,2020-11-11_11h29.40.700,tareaTDv3,2020.2.5,MacIntel,60,,,left,1.0,1.36854,0.0,42.0,42.0,67.0,1.0,25000.0,0.0,75000.0,10.0
,,,,,,,,,,,,,,,,,,,,,,,2,366,2020-11-11_11h29.40.700,tareaTDv3,2020.2.5,MacIntel,60,,,right,1.0,10.003,0.0,43.0,43.0,23.0,1.0,10000.0,0.0,110000.0,90.0
,,,,,,,,,,,,,,,,,,,,,,,2,366,2020-11-11_11h29.40.700,tareaTDv3,2020.2.5,MacIntel,60,,,right,1.0,4.39805,0.0,44.0,44.0,54.0,1.0,5000.0,0.0,150000.0,90.0
,,,,,,,,,,,,,,,,,,,,,,,2,366,2020-11-11_11h29.40.700,tareaTDv3,2020.2.5,MacIntel,60,,,left,1.0,3.21543,0.0,45.0,45.0,36.0,1.0,5000.0,0.0,36000.0,9.0
,,,,,,,,,,,,,,,,,,,,,,,2,366,2020-11-11_11h29.40.700,tareaTDv3,2020.2.5,MacIntel,60,,,left,0.0,2.63224,0.0,46.0,46.0,15.0,1.0,10000.0,0.0,20000.0,59.0
,,,,,,,,,,,,,,,,,,,,,,,2,366,2020-11-11_11h29.40.700,tareaTDv3,2020.2.5,MacIntel,60,,,left,1.0,4.359425,0.0,47.0,47.0,47.0,1.0,5000.0,0.0,56000.0,60.0
,,,,,,,,,,,,,,,,,,,,,,,2,366,2020-11-11_11h29.40.700,tareaTDv3,2020.2.5,MacIntel,60,,,left,1.0,3.112855,0.0,48.0,48.0,30.0,1.0,5000.0,0.0,16000.0,4.0
,,,,,,,,,,,,,,,,,,,,,,,2,366,2020-11-11_11h29.40.700,tareaTDv3,2020.2.5,MacIntel,60,,,right,1.0,4.674885,0.0,49.0,49.0,53.0,1.0,5000.0,0.0,104000.0,90.0
,,,,,,,,,,,,,,,,,,,,,,,2,366,2020-11-11_11h29.40.700,tareaTDv3,2020.2.5,MacIntel,60,,,left,0.0,3.20667,0.0,50.0,50.0,89.0,1.0,25000.0,0.0,150000.0,150.0
,,,,,,,,,,,,,,,,,,,,,,,2,366,2020-11-11_11h29.40.700,tareaTDv3,2020.2.5,MacIntel,60,,,left,0.0,2.14463,0.0,51.0,51.0,77.0,1.0,25000.0,0.0,75000.0,59.0
,,,,,,,,,,,,,,,,,,,,,,,2,366,2020-11-11_11h29.40.700,tareaTDv3,2020.2.5,MacIntel,60,,,left,1.0,1.48911,0.0,52.0,52.0,33.0,1.0,5000.0,0.0,104000.0,5.0
,,,,,,,,,,,,,,,,,,,,,,,2,366,2020-11-11_11h29.40.700,tareaTDv3,2020.2.5,MacIntel,60,,,left,1.0,1.69912,0.0,53.0,53.0,64.0,1.0,25000.0,0.0,150000.0,4.0
,,,,,,,,,,,,,,,,,,,,,,,2,366,2020-11-11_11h29.40.700,tareaTDv3,2020.2.5,MacIntel,60,,,left,0.0,2.019105,0.0,54.0,54.0,20.0,1.0,10000.0,0.0,20000.0,90.0
,,,,,,,,,,,,,,,,,,,,,,,2,366,2020-11-11_11h29.40.700,tareaTDv3,2020.2.5,MacIntel,60,,,right,1.0,2.49105,0.0,55.0,55.0,37.0,1.0,5000.0,0.0,56000.0,9.0
,,,,,,,,,,,,,,,,,,,,,,,2,366,2020-11-11_11h29.40.700,tareaTDv3,2020.2.5,MacIntel,60,,,left,0.0,1.400375,0.0,56.0,56.0,76.0,1.0,25000.0,0.0,55000.0,60.0
,,,,,,,,,,,,,,,,,,,,,,,2,366,2020-11-11_11h29.40.700,tareaTDv3,2020.2.5,MacIntel,60,,,right,0.0,2.918615,0.0,57.0,57.0,29.0,1.0,10000.0,0.0,151000.0,151.0
,,,,,,,,,,,,,,,,,,,,,,,2,366,2020-11-11_11h29.40.700,tareaTDv3,2020.2.5,MacIntel,60,,,left,1.0,1.93368,0.0,58.0,58.0,18.0,1.0,10000.0,0.0,110000.0,60.0
,,,,,,,,,,,,,,,,,,,,,,,2,366,2020-11-11_11h29.40.700,tareaTDv3,2020.2.5,MacIntel,60,,,left,0.0,3.6986,0.0,59.0,59.0,70.0,1.0,25000.0,0.0,35000.0,30.0
,,,,,,,,,,,,,,,,,,,,,,,2,366,2020-11-11_11h29.40.700,tareaTDv3,2020.2.5,MacIntel,60,,,right,0.0,1.850295,0.0,60.0,60.0,16.0,1.0,10000.0,0.0,39000.0,59.0
,,,,,,,,,,,,,,,,,,,,,,,2,366,2020-11-11_11h29.40.700,tareaTDv3,2020.2.5,MacIntel,60,,,left,1.0,1.98269,0.0,61.0,61.0,73.0,1.0,25000.0,0.0,125000.0,31.0
,,,,,,,,,,,,,,,,,,,,,,,2,366,2020-11-11_11h29.40.700,tareaTDv3,2020.2.5,MacIntel,60,,,left,1.0,1.466395,0.0,62.0,62.0,39.0,1.0,5000.0,0.0,149000.0,10.0
,,,,,,,,,,,,,,,,,,,,,,,2,366,2020-11-11_11h29.40.700,tareaTDv3,2020.2.5,MacIntel,60,,,right,0.0,1.434085,0.0,63.0,63.0,57.0,1.0,5000.0,0.0,55000.0,151.0
,,,,,,,,,,,,,,,,,,,,,,,2,366,2020-11-11_11h29.40.700,tareaTDv3,2020.2.5,MacIntel,60,,,right,0.0,6.141355,0.0,64.0,64.0,35.0,1.0,5000.0,0.0,15000.0,11.0
,,,,,,,,,,,,,,,,,,,,,,,2,366,2020-11-11_11h29.40.700,tareaTDv3,2020.2.5,MacIntel,60,,,left,0.0,1.986525,0.0,65.0,65.0,87.0,1.0,25000.0,0.0,75000.0,151.0
,,,,,,,,,,,,,,,,,,,,,,,2,366,2020-11-11_11h29.40.700,tareaTDv3,2020.2.5,MacIntel,60,,,right,1.0,2.884505,0.0,66.0,66.0,2.0,1.0,10000.0,0.0,61000.0,4.0
,,,,,,,,,,,,,,,,,,,,,,,2,366,2020-11-11_11h29.40.700,tareaTDv3,2020.2.5,MacIntel,60,,,right,0.0,1.368245,0.0,67.0,67.0,71.0,1.0,25000.0,0.0,55000.0,30.0
,,,,,,,,,,,,,,,,,,,,,,,2,366,2020-11-11_11h29.40.700,tareaTDv3,2020.2.5,MacIntel,60,,,right,0.0,4.368705,0.0,68.0,68.0,10.0,1.0,10000.0,0.0,21000.0,31.0
,,,,,,,,,,,,,,,,,,,,,,,2,366,2020-11-11_11h29.40.700,tareaTDv3,2020.2.5,MacIntel,60,,,left,0.0,2.144505,0.0,69.0,69.0,21.0,1.0,10000.0,0.0,40000.0,91.0
,,,,,,,,,,,,,,,,,,,,,,,2,366,2020-11-11_11h29.40.700,tareaTDv3,2020.2.5,MacIntel,60,,,right,1.0,1.94981,0.0,70.0,70.0,40.0,1.0,5000.0,0.0,14000.0,31.0
,,,,,,,,,,,,,,,,,,,,,,,2,366,2020-11-11_11h29.40.700,tareaTDv3,2020.2.5,MacIntel,60,,,right,0.0,3.95644,0.0,71.0,71.0,59.0,1.0,5000.0,0.0,151000.0,150.0
,,,,,,,,,,,,,,,,,,,,,,,2,366,2020-11-11_11h29.40.700,tareaTDv3,2020.2.5,MacIntel,60,,,right,1.0,3.540225,0.0,72.0,72.0,7.0,1.0,10000.0,0.0,59000.0,9.0
,,,,,,,,,,,,,,,,,,,,,,,2,366,2020-11-11_11h29.40.700,tareaTDv3,2020.2.5,MacIntel,60,,,right,0.0,2.80094,0.0,73.0,73.0,52.0,1.0,5000.0,0.0,56000.0,89.0
,,,,,,,,,,,,,,,,,,,,,,,2,366,2020-11-11_11h29.40.700,tareaTDv3,2020.2.5,MacIntel,60,,,right,0.0,2.595885,0.0,74.0,74.0,0.0,1.0,10000.0,0.0,20000.0,5.0
,,,,,,,,,,,,,,,,,,,,,,,2,366,2020-11-11_11h29.40.700,tareaTDv3,2020.2.5,MacIntel,60,,,left,1.0,4.639685,0.0,75.0,75.0,3.0,1.0,10000.0,0.0,109000.0,5.0
,,,,,,,,,,,,,,,,,,,,,,,2,366,2020-11-11_11h29.40.700,tareaTDv3,2020.2.5,MacIntel,60,,,left,1.0,3.24785,0.0,76.0,76.0,4.0,1.0,10000.0,0.0,150000.0,5.0
,,,,,,,,,,,,,,,,,,,,,,,2,366,2020-11-11_11h29.40.700,tareaTDv3,2020.2.5,MacIntel,60,,,left,0.0,2.94716,0.0,77.0,77.0,78.0,1.0,25000.0,0.0,125000.0,59.0
,,,,,,,,,,,,,,,,,,,,,,,2,366,2020-11-11_11h29.40.700,tareaTDv3,2020.2.5,MacIntel,60,,,right,1.0,2.46162,0.0,78.0,78.0,43.0,1.0,5000.0,0.0,106000.0,29.0
,,,,,,,,,,,,,,,,,,,,,,,2,366,2020-11-11_11h29.40.700,tareaTDv3,2020.2.5,MacIntel,60,,,left,0.0,3.734045,0.0,79.0,79.0,55.0,1.0,5000.0,0.0,14000.0,149.0
,,,,,,,,,,,,,,,,,,,,,,,2,366,2020-11-11_11h29.40.700,tareaTDv3,2020.2.5,MacIntel,60,,,left,1.0,3.2069,0.0,80.0,80.0,38.0,1.0,5000.0,0.0,104000.0,10.0
,,,,,,,,,,,,,,,,,,,,,,,2,366,2020-11-11_11h29.40.700,tareaTDv3,2020.2.5,MacIntel,60,,,right,0.0,3.48766,0.0,81.0,81.0,19.0,1.0,10000.0,0.0,149000.0,61.0
,,,,,,,,,,,,,,,,,,,,,,,2,366,2020-11-11_11h29.40.700,tareaTDv3,2020.2.5,MacIntel,60,,,left,0.0,2.658865,0.0,82.0,82.0,11.0,1.0,10000.0,0.0,39000.0,29.0
,,,,,,,,,,,,,,,,,,,,,,,2,366,2020-11-11_11h29.40.700,tareaTDv3,2020.2.5,MacIntel,60,,,left,0.0,5.927385,0.0,83.0,83.0,14.0,1.0,10000.0,0.0,150000.0,30.0
,,,,,,,,,,,,,,,,,,,,,,,2,366,2020-11-11_11h29.40.700,tareaTDv3,2020.2.5,MacIntel,60,,,right,0.0,2.49223,0.0,84.0,84.0,50.0,1.0,5000.0,0.0,15000.0,91.0
,,,,,,,,,,,,,,,,,,,,,,,2,366,2020-11-11_11h29.40.700,tareaTDv3,2020.2.5,MacIntel,60,,,right,1.0,2.699635,0.0,85.0,85.0,1.0,1.0,10000.0,0.0,39000.0,6.0
,,,,,,,,,,,,,,,,,,,,,,,2,366,2020-11-11_11h29.40.700,tareaTDv3,2020.2.5,MacIntel,60,,,right,0.0,2.74719,0.0,86.0,86.0,85.0,1.0,25000.0,0.0,35000.0,150.0
,,,,,,,,,,,,,,,,,,,,,,,2,366,2020-11-11_11h29.40.700,tareaTDv3,2020.2.5,MacIntel,60,,,left,1.0,1.97502,0.0,87.0,87.0,32.0,1.0,5000.0,0.0,54000.0,5.0
,,,,,,,,,,,,,,,,,,,,,,,2,366,2020-11-11_11h29.40.700,tareaTDv3,2020.2.5,MacIntel,60,,,right,0.0,3.05686,0.0,88.0,88.0,80.0,1.0,25000.0,0.0,35000.0,90.0
,,,,,,,,,,,,,,,,,,,,,,,2,366,2020-11-11_11h29.40.700,tareaTDv3,2020.2.5,MacIntel,60,,,left,1.0,3.230475,0.0,89.0,89.0,60.0,1.0,25000.0,0.0,35000.0,5.0
