key1.keys,key1.rt,key2.keys,key2.rt,key2_2.keys,key2_2.rt,key2_3.keys,key2_3.rt,key3.keys,key3.rt,key4.keys,key4.rt,respP.keys,respP.corr,respP.rt,Practice.thisRepN,Practice.thisTrialN,Practice.thisN,Practice.thisIndex,Practice.ran,ssAmount,llAmount,llDelay,session,participant,date,expName,psychopyVersion,OS,frameRate,key5.keys,key5.rt,respT.keys,respT.corr,respT.rt,trials.thisRepN,trials.thisTrialN,trials.thisN,trials.thisIndex,trials.ran,ss_am,ss_del,ll_am,ll_del,key_resp_4.keys,key_resp_4.rt
space,21.5315,space,19.3002,space,11.6759,space,3.6368,left,2.5682,space,1.1485,left,0,3.6095,0,0,0,2,1,10000,19000,89,2,70,2022-09-24_09h07.59.721,tareaTDv3,2020.2.5,Win32,60,,,,,,,,,,,,,,,,
,,,,,,,,,,,,left,0,3.4063,0,1,1,1,1,25000,35000,150,2,70,2022-09-24_09h07.59.721,tareaTDv3,2020.2.5,Win32,60,,,,,,,,,,,,,,,,
,,,,,,,,,,,,left,1,5.683,0,2,2,0,1,10000,109000,9,2,70,2022-09-24_09h07.59.721,tareaTDv3,2020.2.5,Win32,60,,,,,,,,,,,,,,,,
,,,,,,,,,,,,,,,,,,,,,,,2,70,2022-09-24_09h07.59.721,tareaTDv3,2020.2.5,Win32,60,g,6.2004,right,1,2.4085,0,0,0,8,1,10000,0,111000,10,,
,,,,,,,,,,,,,,,,,,,,,,,2,70,2022-09-24_09h07.59.721,tareaTDv3,2020.2.5,Win32,60,,,left,0,1.7176,0,1,1,57,1,5000,0,55000,151,,
,,,,,,,,,,,,,,,,,,,,,,,2,70,2022-09-24_09h07.59.721,tareaTDv3,2020.2.5,Win32,60,,,left,1,1.7076,0,2,2,14,1,10000,0,150000,30,,
,,,,,,,,,,,,,,,,,,,,,,,2,70,2022-09-24_09h07.59.721,tareaTDv3,2020.2.5,Win32,60,,,right,1,4.9525,0,3,3,39,1,5000,0,149000,10,,
,,,,,,,,,,,,,,,,,,,,,,,2,70,2022-09-24_09h07.59.721,tareaTDv3,2020.2.5,Win32,60,,,right,0,2.6892,0,4,4,76,1,25000,0,55000,60,,
,,,,,,,,,,,,,,,,,,,,,,,2,70,2022-09-24_09h07.59.721,tareaTDv3,2020.2.5,Win32,60,,,left,1,3.0531,0,5,5,75,1,25000,0,35000,60,,
,,,,,,,,,,,,,,,,,,,,,,,2,70,2022-09-24_09h07.59.721,tareaTDv3,2020.2.5,Win32,60,,,left,1,1.5384,0,6,6,52,1,5000,0,56000,89,,
,,,,,,,,,,,,,,,,,,,,,,,2,70,2022-09-24_09h07.59.721,tareaTDv3,2020.2.5,Win32,60,,,right,1,1.2007,0,7,7,71,1,25000,0,55000,30,,
,,,,,,,,,,,,,,,,,,,,,,,2,70,2022-09-24_09h07.59.721,tareaTDv3,2020.2.5,Win32,60,,,right,0,2.2174,0,8,8,65,1,25000,0,35000,11,,
,,,,,,,,,,,,,,,,,,,,,,,2,70,2022-09-24_09h07.59.721,tareaTDv3,2020.2.5,Win32,60,,,left,1,3.0035,0,9,9,18,1,10000,0,110000,60,,
,,,,,,,,,,,,,,,,,,,,,,,2,70,2022-09-24_09h07.59.721,tareaTDv3,2020.2.5,Win32,60,,,right,1,1.816,0,10,10,0,1,10000,0,20000,5,,
,,,,,,,,,,,,,,,,,,,,,,,2,70,2022-09-24_09h07.59.721,tareaTDv3,2020.2.5,Win32,60,,,right,0,2.8511,0,11,11,20,1,10000,0,20000,90,,
,,,,,,,,,,,,,,,,,,,,,,,2,70,2022-09-24_09h07.59.721,tareaTDv3,2020.2.5,Win32,60,,,left,1,2.244,0,12,12,79,1,25000,0,150000,61,,
,,,,,,,,,,,,,,,,,,,,,,,2,70,2022-09-24_09h07.59.721,tareaTDv3,2020.2.5,Win32,60,,,left,1,1.4499,0,13,13,7,1,10000,0,59000,9,,
,,,,,,,,,,,,,,,,,,,,,,,2,70,2022-09-24_09h07.59.721,tareaTDv3,2020.2.5,Win32,60,,,right,1,3.6689,0,14,14,84,1,25000,0,150000,89,,
,,,,,,,,,,,,,,,,,,,,,,,2,70,2022-09-24_09h07.59.721,tareaTDv3,2020.2.5,Win32,60,,,right,1,2.9508,0,15,15,47,1,5000,0,56000,60,,
,,,,,,,,,,,,,,,,,,,,,,,2,70,2022-09-24_09h07.59.721,tareaTDv3,2020.2.5,Win32,60,,,right,1,1.8353,0,16,16,46,1,5000,0,36000,61,,
,,,,,,,,,,,,,,,,,,,,,,,2,70,2022-09-24_09h07.59.721,tareaTDv3,2020.2.5,Win32,60,,,left,1,4.8925,0,17,17,51,1,5000,0,35000,89,,
,,,,,,,,,,,,,,,,,,,,,,,2,70,2022-09-24_09h07.59.721,tareaTDv3,2020.2.5,Win32,60,,,left,1,2.044,0,18,18,4,1,10000,0,150000,5,,
,,,,,,,,,,,,,,,,,,,,,,,2,70,2022-09-24_09h07.59.721,tareaTDv3,2020.2.5,Win32,60,,,left,0,2.1187,0,19,19,81,1,25000,0,55000,90,,
,,,,,,,,,,,,,,,,,,,,,,,2,70,2022-09-24_09h07.59.721,tareaTDv3,2020.2.5,Win32,60,,,left,0,3.5844,0,20,20,86,1,25000,0,55000,151,,
,,,,,,,,,,,,,,,,,,,,,,,2,70,2022-09-24_09h07.59.721,tareaTDv3,2020.2.5,Win32,60,,,left,0,2.8891,0,21,21,45,1,5000,0,15000,61,,
,,,,,,,,,,,,,,,,,,,,,,,2,70,2022-09-24_09h07.59.721,tareaTDv3,2020.2.5,Win32,60,,,left,1,11.4596,0,22,22,73,1,25000,0,125000,31,,
,,,,,,,,,,,,,,,,,,,,,,,2,70,2022-09-24_09h07.59.721,tareaTDv3,2020.2.5,Win32,60,,,right,0,1.5707,0,23,23,21,1,10000,0,40000,91,,
,,,,,,,,,,,,,,,,,,,,,,,2,70,2022-09-24_09h07.59.721,tareaTDv3,2020.2.5,Win32,60,,,right,1,2.6764,0,24,24,83,1,25000,0,125000,89,,
,,,,,,,,,,,,,,,,,,,,,,,2,70,2022-09-24_09h07.59.721,tareaTDv3,2020.2.5,Win32,60,,,left,1,2.4554,0,25,25,28,1,10000,0,109000,149,,
,,,,,,,,,,,,,,,,,,,,,,,2,70,2022-09-24_09h07.59.721,tareaTDv3,2020.2.5,Win32,60,,,right,1,2.4435,0,26,26,13,1,10000,0,111000,30,,
,,,,,,,,,,,,,,,,,,,,,,,2,70,2022-09-24_09h07.59.721,tareaTDv3,2020.2.5,Win32,60,,,left,1,3.9024,0,27,27,33,1,5000,0,104000,5,,
,,,,,,,,,,,,,,,,,,,,,,,2,70,2022-09-24_09h07.59.721,tareaTDv3,2020.2.5,Win32,60,,,left,1,1.6762,0,28,28,62,1,25000,0,75000,5,,
,,,,,,,,,,,,,,,,,,,,,,,2,70,2022-09-24_09h07.59.721,tareaTDv3,2020.2.5,Win32,60,,,right,1,1.4709,0,29,29,2,1,10000,0,61000,4,,
,,,,,,,,,,,,,,,,,,,,,,,2,70,2022-09-24_09h07.59.721,tareaTDv3,2020.2.5,Win32,60,,,right,1,0.726,0,30,30,36,1,5000,0,36000,9,,
,,,,,,,,,,,,,,,,,,,,,,,2,70,2022-09-24_09h07.59.721,tareaTDv3,2020.2.5,Win32,60,,,right,1,4.1219,0,31,31,63,1,25000,0,125000,4,,
,,,,,,,,,,,,,,,,,,,,,,,2,70,2022-09-24_09h07.59.721,tareaTDv3,2020.2.5,Win32,60,,,left,1,2.7487,0,32,32,10,1,10000,0,21000,31,,
,,,,,,,,,,,,,,,,,,,,,,,2,70,2022-09-24_09h07.59.721,tareaTDv3,2020.2.5,Win32,60,,,right,1,2.3869,0,33,33,54,1,5000,0,150000,90,,
,,,,,,,,,,,,,,,,,,,,,,,2,70,2022-09-24_09h07.59.721,tareaTDv3,2020.2.5,Win32,60,,,right,1,7.1611,0,34,34,12,1,10000,0,60000,29,,
,,,,,,,,,,,,,,,,,,,,,,,2,70,2022-09-24_09h07.59.721,tareaTDv3,2020.2.5,Win32,60,,,right,1,0.5442,0,35,35,41,1,5000,0,35000,31,,
,,,,,,,,,,,,,,,,,,,,,,,2,70,2022-09-24_09h07.59.721,tareaTDv3,2020.2.5,Win32,60,,,right,1,1.6426,0,36,36,37,1,5000,0,56000,9,,
,,,,,,,,,,,,,,,,,,,,,,,2,70,2022-09-24_09h07.59.721,tareaTDv3,2020.2.5,Win32,60,,,left,0,2.6591,0,37,37,27,1,10000,0,61000,150,,
,,,,,,,,,,,,,,,,,,,,,,,2,70,2022-09-24_09h07.59.721,tareaTDv3,2020.2.5,Win32,60,,,left,0,2.7566,0,38,38,29,1,10000,0,151000,151,,
,,,,,,,,,,,,,,,,,,,,,,,2,70,2022-09-24_09h07.59.721,tareaTDv3,2020.2.5,Win32,60,,,right,1,2.1883,0,39,39,74,1,25000,0,150000,29,,
,,,,,,,,,,,,,,,,,,,,,,,2,70,2022-09-24_09h07.59.721,tareaTDv3,2020.2.5,Win32,60,,,right,0,1.834,0,40,40,89,1,25000,0,150000,150,,
,,,,,,,,,,,,,,,,,,,,,,,2,70,2022-09-24_09h07.59.721,tareaTDv3,2020.2.5,Win32,60,,,right,1,4.9225,0,41,41,43,1,5000,0,106000,29,,
,,,,,,,,,,,,,,,,,,,,,,,2,70,2022-09-24_09h07.59.721,tareaTDv3,2020.2.5,Win32,60,,,left,0,4.0064,0,42,42,78,1,25000,0,125000,59,,
,,,,,,,,,,,,,,,,,,,,,,,2,70,2022-09-24_09h07.59.721,tareaTDv3,2020.2.5,Win32,60,,,left,0,1.7538,0,43,43,24,1,10000,0,149000,89,,
,,,,,,,,,,,,,,,,,,,,,,,2,70,2022-09-24_09h07.59.721,tareaTDv3,2020.2.5,Win32,60,,,right,1,1.3505,0,44,44,32,1,5000,0,54000,5,,
,,,,,,,,,,,,,,,,,,,,,,,2,70,2022-09-24_09h07.59.721,tareaTDv3,2020.2.5,Win32,60,,,left,0,3.5082,0,45,45,25,1,10000,0,10000,150,,
,,,,,,,,,,,,,,,,,,,,,,,2,70,2022-09-24_09h07.59.721,tareaTDv3,2020.2.5,Win32,60,,,right,0,3.4865,0,46,46,23,1,10000,0,110000,90,,
,,,,,,,,,,,,,,,,,,,,,,,2,70,2022-09-24_09h07.59.721,tareaTDv3,2020.2.5,Win32,60,,,right,0,2.302,0,47,47,58,1,5000,0,106000,152,,
,,,,,,,,,,,,,,,,,,,,,,,2,70,2022-09-24_09h07.59.721,tareaTDv3,2020.2.5,Win32,60,,,left,0,2.0015,0,48,48,87,1,25000,0,75000,151,,
,,,,,,,,,,,,,,,,,,,,,,,2,70,2022-09-24_09h07.59.721,tareaTDv3,2020.2.5,Win32,60,,,right,0,2.2362,0,49,49,50,1,5000,0,15000,91,,
,,,,,,,,,,,,,,,,,,,,,,,2,70,2022-09-24_09h07.59.721,tareaTDv3,2020.2.5,Win32,60,,,right,1,1.2548,0,50,50,53,1,5000,0,104000,90,,
,,,,,,,,,,,,,,,,,,,,,,,2,70,2022-09-24_09h07.59.721,tareaTDv3,2020.2.5,Win32,60,,,right,1,12.7179,0,51,51,3,1,10000,0,109000,5,,
,,,,,,,,,,,,,,,,,,,,,,,2,70,2022-09-24_09h07.59.721,tareaTDv3,2020.2.5,Win32,60,,,right,0,1.1698,0,52,52,88,1,25000,0,125000,149,,
,,,,,,,,,,,,,,,,,,,,,,,2,70,2022-09-24_09h07.59.721,tareaTDv3,2020.2.5,Win32,60,,,right,0,2.1625,0,53,53,80,1,25000,0,35000,90,,
,,,,,,,,,,,,,,,,,,,,,,,2,70,2022-09-24_09h07.59.721,tareaTDv3,2020.2.5,Win32,60,,,left,0,2.3005,0,54,54,17,1,10000,0,60000,60,,
,,,,,,,,,,,,,,,,,,,,,,,2,70,2022-09-24_09h07.59.721,tareaTDv3,2020.2.5,Win32,60,,,right,1,3.7887,0,55,55,49,1,5000,0,149000,59,,
,,,,,,,,,,,,,,,,,,,,,,,2,70,2022-09-24_09h07.59.721,tareaTDv3,2020.2.5,Win32,60,,,left,1,2.001,0,56,56,56,1,5000,0,35000,150,,
,,,,,,,,,,,,,,,,,,,,,,,2,70,2022-09-24_09h07.59.721,tareaTDv3,2020.2.5,Win32,60,,,right,0,2.1051,0,57,57,68,1,25000,0,125000,9,,
,,,,,,,,,,,,,,,,,,,,,,,2,70,2022-09-24_09h07.59.721,tareaTDv3,2020.2.5,Win32,60,,,right,1,8.0997,0,58,58,64,1,25000,0,150000,4,,
,,,,,,,,,,,,,,,,,,,,,,,2,70,2022-09-24_09h07.59.721,tareaTDv3,2020.2.5,Win32,60,,,left,1,1.4511,0,59,59,30,1,5000,0,16000,4,,
,,,,,,,,,,,,,,,,,,,,,,,2,70,2022-09-24_09h07.59.721,tareaTDv3,2020.2.5,Win32,60,,,right,0,1.2016,0,60,60,82,1,25000,0,75000,90,,
,,,,,,,,,,,,,,,,,,,,,,,2,70,2022-09-24_09h07.59.721,tareaTDv3,2020.2.5,Win32,60,,,right,1,1.7842,0,61,61,1,1,10000,0,39000,6,,
,,,,,,,,,,,,,,,,,,,,,,,2,70,2022-09-24_09h07.59.721,tareaTDv3,2020.2.5,Win32,60,,,left,1,6.7893,0,62,62,5,1,10000,0,19000,11,,
,,,,,,,,,,,,,,,,,,,,,,,2,70,2022-09-24_09h07.59.721,tareaTDv3,2020.2.5,Win32,60,,,right,0,3.1258,0,63,63,85,1,25000,0,35000,150,,
,,,,,,,,,,,,,,,,,,,,,,,2,70,2022-09-24_09h07.59.721,tareaTDv3,2020.2.5,Win32,60,,,right,1,4.5493,0,64,64,61,1,25000,0,55000,6,,
,,,,,,,,,,,,,,,,,,,,,,,2,70,2022-09-24_09h07.59.721,tareaTDv3,2020.2.5,Win32,60,,,right,0,1.5356,0,65,65,15,1,10000,0,20000,59,,
,,,,,,,,,,,,,,,,,,,,,,,2,70,2022-09-24_09h07.59.721,tareaTDv3,2020.2.5,Win32,60,,,right,0,2.9012,0,66,66,6,1,10000,0,40000,10,,
,,,,,,,,,,,,,,,,,,,,,,,2,70,2022-09-24_09h07.59.721,tareaTDv3,2020.2.5,Win32,60,,,left,1,3.4037,0,67,67,31,1,5000,0,35000,6,,
,,,,,,,,,,,,,,,,,,,,,,,2,70,2022-09-24_09h07.59.721,tareaTDv3,2020.2.5,Win32,60,,,left,0,6.2212,0,68,68,70,1,25000,0,35000,30,,
,,,,,,,,,,,,,,,,,,,,,,,2,70,2022-09-24_09h07.59.721,tareaTDv3,2020.2.5,Win32,60,,,right,1,2.7363,0,69,69,66,1,25000,0,55000,11,,
,,,,,,,,,,,,,,,,,,,,,,,2,70,2022-09-24_09h07.59.721,tareaTDv3,2020.2.5,Win32,60,,,left,1,2.7255,0,70,70,11,1,10000,0,39000,29,,
,,,,,,,,,,,,,,,,,,,,,,,2,70,2022-09-24_09h07.59.721,tareaTDv3,2020.2.5,Win32,60,,,right,0,5.57,0,71,71,19,1,10000,0,149000,61,,
,,,,,,,,,,,,,,,,,,,,,,,2,70,2022-09-24_09h07.59.721,tareaTDv3,2020.2.5,Win32,60,,,left,1,4.4676,0,72,72,60,1,25000,0,35000,5,,
,,,,,,,,,,,,,,,,,,,,,,,2,70,2022-09-24_09h07.59.721,tareaTDv3,2020.2.5,Win32,60,,,left,1,1.5999,0,73,73,67,1,25000,0,75000,10,,
,,,,,,,,,,,,,,,,,,,,,,,2,70,2022-09-24_09h07.59.721,tareaTDv3,2020.2.5,Win32,60,,,right,1,1.7045,0,74,74,77,1,25000,0,75000,59,,
,,,,,,,,,,,,,,,,,,,,,,,2,70,2022-09-24_09h07.59.721,tareaTDv3,2020.2.5,Win32,60,,,left,0,1.177,0,75,75,26,1,10000,0,39000,150,,
,,,,,,,,,,,,,,,,,,,,,,,2,70,2022-09-24_09h07.59.721,tareaTDv3,2020.2.5,Win32,60,,,left,0,0.4678,0,76,76,59,1,5000,0,151000,150,,
,,,,,,,,,,,,,,,,,,,,,,,2,70,2022-09-24_09h07.59.721,tareaTDv3,2020.2.5,Win32,60,,,left,1,1.0161,0,77,77,44,1,5000,0,150000,30,,
,,,,,,,,,,,,,,,,,,,,,,,2,70,2022-09-24_09h07.59.721,tareaTDv3,2020.2.5,Win32,60,,,right,1,0.99,0,78,78,38,1,5000,0,104000,10,,
,,,,,,,,,,,,,,,,,,,,,,,2,70,2022-09-24_09h07.59.721,tareaTDv3,2020.2.5,Win32,60,,,right,1,4.0925,0,79,79,69,1,25000,0,150000,9,,
,,,,,,,,,,,,,,,,,,,,,,,2,70,2022-09-24_09h07.59.721,tareaTDv3,2020.2.5,Win32,60,,,left,0,2.5835,0,80,80,48,1,5000,0,105000,60,,
,,,,,,,,,,,,,,,,,,,,,,,2,70,2022-09-24_09h07.59.721,tareaTDv3,2020.2.5,Win32,60,,,left,0,0.9681,0,81,81,22,1,10000,0,61000,89,,
,,,,,,,,,,,,,,,,,,,,,,,2,70,2022-09-24_09h07.59.721,tareaTDv3,2020.2.5,Win32,60,,,right,0,4.4674,0,82,82,16,1,10000,0,39000,59,,
,,,,,,,,,,,,,,,,,,,,,,,2,70,2022-09-24_09h07.59.721,tareaTDv3,2020.2.5,Win32,60,,,left,1,2.1061,0,83,83,42,1,5000,0,56000,29,,
,,,,,,,,,,,,,,,,,,,,,,,2,70,2022-09-24_09h07.59.721,tareaTDv3,2020.2.5,Win32,60,,,left,1,0.9044,0,84,84,35,1,5000,0,15000,11,,
,,,,,,,,,,,,,,,,,,,,,,,2,70,2022-09-24_09h07.59.721,tareaTDv3,2020.2.5,Win32,60,,,right,1,3.6478,0,85,85,9,1,10000,0,151000,11,,
,,,,,,,,,,,,,,,,,,,,,,,2,70,2022-09-24_09h07.59.721,tareaTDv3,2020.2.5,Win32,60,,,right,1,6.501,0,86,86,34,1,5000,0,151000,4,,
,,,,,,,,,,,,,,,,,,,,,,,2,70,2022-09-24_09h07.59.721,tareaTDv3,2020.2.5,Win32,60,,,left,1,1.9795,0,87,87,55,1,5000,0,14000,149,,
,,,,,,,,,,,,,,,,,,,,,,,2,70,2022-09-24_09h07.59.721,tareaTDv3,2020.2.5,Win32,60,,,left,1,1.5823,0,88,88,72,1,25000,0,75000,31,,
,,,,,,,,,,,,,,,,,,,,,,,2,70,2022-09-24_09h07.59.721,tareaTDv3,2020.2.5,Win32,60,,,left,0,1.1929,0,89,89,40,1,5000,0,14000,31,,
,,,,,,,,,,,,,,,,,,,,,,,2,70,2022-09-24_09h07.59.721,tareaTDv3,2020.2.5,Win32,60,,,,,,,,,,,,,,,right,1.0596