key1_keys,key1_rt,key2_keys,key2_rt,key2_2_keys,key2_2_rt,key2_3_keys,key2_3_rt,key3_keys,key3_rt,key4_keys,key4_rt,respP_keys,respP_corr,respP_rt,Practice_thisRepN,Practice_thisTrialN,Practice_thisN,Practice_thisIndex,Practice_ran,ssAmount,llAmount,llDelay,session,participant,date,expName,psychopyVersion,OS,frameRate,key5_keys,key5_rt,respT_keys,respT_corr,respT_rt,trials_thisRepN,trials_thisTrialN,trials_thisN,trials_thisIndex,trials_ran,ss_am,ss_del,ll_am,ll_del
space,20.8112,space,22.6425,space,16.4631,space,7.1268,left,3.6862,space,3.8505,left,0.0,3.6993,0.0,0.0,0.0,2.0,1.0,10000.0,19000.0,89.0,04 mayo 2022,108,2022-05-04_07h48.02.517,tareaTDv3,2020.2.5,Win32,60,,,,,,,,,,,,,,
,,,,,,,,,,,,right,1.0,4.5692,0.0,1.0,1.0,1.0,1.0,25000.0,35000.0,150.0,04 mayo 2022,108,2022-05-04_07h48.02.517,tareaTDv3,2020.2.5,Win32,60,,,,,,,,,,,,,,
,,,,,,,,,,,,left,0.0,2.5841,0.0,2.0,2.0,0.0,1.0,10000.0,109000.0,9.0,04 mayo 2022,108,2022-05-04_07h48.02.517,tareaTDv3,2020.2.5,Win32,60,,,,,,,,,,,,,,
,,,,,,,,,,,,,,,,,,,,,,,04 mayo 2022,108,2022-05-04_07h48.02.517,tareaTDv3,2020.2.5,Win32,60,g,16.1791,left,1.0,3.0095,0.0,0.0,0.0,74.0,1.0,25000.0,0.0,150000.0,29.0
,,,,,,,,,,,,,,,,,,,,,,,04 mayo 2022,108,2022-05-04_07h48.02.517,tareaTDv3,2020.2.5,Win32,60,,,left,1.0,2.7453,0.0,1.0,1.0,33.0,1.0,5000.0,0.0,104000.0,5.0
,,,,,,,,,,,,,,,,,,,,,,,04 mayo 2022,108,2022-05-04_07h48.02.517,tareaTDv3,2020.2.5,Win32,60,,,right,0.0,3.5445,0.0,2.0,2.0,30.0,1.0,5000.0,0.0,16000.0,4.0
,,,,,,,,,,,,,,,,,,,,,,,04 mayo 2022,108,2022-05-04_07h48.02.517,tareaTDv3,2020.2.5,Win32,60,,,right,1.0,2.9542,0.0,3.0,3.0,36.0,1.0,5000.0,0.0,36000.0,9.0
,,,,,,,,,,,,,,,,,,,,,,,04 mayo 2022,108,2022-05-04_07h48.02.517,tareaTDv3,2020.2.5,Win32,60,,,right,0.0,2.6896,0.0,4.0,4.0,26.0,1.0,10000.0,0.0,39000.0,150.0
,,,,,,,,,,,,,,,,,,,,,,,04 mayo 2022,108,2022-05-04_07h48.02.517,tareaTDv3,2020.2.5,Win32,60,,,left,1.0,3.4339,0.0,5.0,5.0,42.0,1.0,5000.0,0.0,56000.0,29.0
,,,,,,,,,,,,,,,,,,,,,,,04 mayo 2022,108,2022-05-04_07h48.02.517,tareaTDv3,2020.2.5,Win32,60,,,left,0.0,4.0192,0.0,6.0,6.0,88.0,1.0,25000.0,0.0,125000.0,149.0
,,,,,,,,,,,,,,,,,,,,,,,04 mayo 2022,108,2022-05-04_07h48.02.517,tareaTDv3,2020.2.5,Win32,60,,,right,0.0,5.0268,0.0,7.0,7.0,60.0,1.0,25000.0,0.0,35000.0,5.0
,,,,,,,,,,,,,,,,,,,,,,,04 mayo 2022,108,2022-05-04_07h48.02.517,tareaTDv3,2020.2.5,Win32,60,,,right,1.0,2.2066,0.0,8.0,8.0,47.0,1.0,5000.0,0.0,56000.0,60.0
,,,,,,,,,,,,,,,,,,,,,,,04 mayo 2022,108,2022-05-04_07h48.02.517,tareaTDv3,2020.2.5,Win32,60,,,right,0.0,4.3044,0.0,9.0,9.0,19.0,1.0,10000.0,0.0,149000.0,61.0
,,,,,,,,,,,,,,,,,,,,,,,04 mayo 2022,108,2022-05-04_07h48.02.517,tareaTDv3,2020.2.5,Win32,60,,,left,1.0,4.1103,0.0,10.0,10.0,2.0,1.0,10000.0,0.0,61000.0,4.0
,,,,,,,,,,,,,,,,,,,,,,,04 mayo 2022,108,2022-05-04_07h48.02.517,tareaTDv3,2020.2.5,Win32,60,,,right,0.0,1.7103,0.0,11.0,11.0,56.0,1.0,5000.0,0.0,35000.0,150.0
,,,,,,,,,,,,,,,,,,,,,,,04 mayo 2022,108,2022-05-04_07h48.02.517,tareaTDv3,2020.2.5,Win32,60,,,left,0.0,2.1302,0.0,12.0,12.0,75.0,1.0,25000.0,0.0,35000.0,60.0
,,,,,,,,,,,,,,,,,,,,,,,04 mayo 2022,108,2022-05-04_07h48.02.517,tareaTDv3,2020.2.5,Win32,60,,,left,1.0,2.7611,0.0,13.0,13.0,63.0,1.0,25000.0,0.0,125000.0,4.0
,,,,,,,,,,,,,,,,,,,,,,,04 mayo 2022,108,2022-05-04_07h48.02.517,tareaTDv3,2020.2.5,Win32,60,,,right,1.0,3.7555,0.0,14.0,14.0,72.0,1.0,25000.0,0.0,75000.0,31.0
,,,,,,,,,,,,,,,,,,,,,,,04 mayo 2022,108,2022-05-04_07h48.02.517,tareaTDv3,2020.2.5,Win32,60,,,left,1.0,3.6853,0.0,15.0,15.0,71.0,1.0,25000.0,0.0,55000.0,30.0
,,,,,,,,,,,,,,,,,,,,,,,04 mayo 2022,108,2022-05-04_07h48.02.517,tareaTDv3,2020.2.5,Win32,60,,,left,0.0,3.7928,0.0,16.0,16.0,66.0,1.0,25000.0,0.0,55000.0,11.0
,,,,,,,,,,,,,,,,,,,,,,,04 mayo 2022,108,2022-05-04_07h48.02.517,tareaTDv3,2020.2.5,Win32,60,,,left,0.0,3.0132,0.0,17.0,17.0,21.0,1.0,10000.0,0.0,40000.0,91.0
,,,,,,,,,,,,,,,,,,,,,,,04 mayo 2022,108,2022-05-04_07h48.02.517,tareaTDv3,2020.2.5,Win32,60,,,left,1.0,1.8529,0.0,18.0,18.0,1.0,1.0,10000.0,0.0,39000.0,6.0
,,,,,,,,,,,,,,,,,,,,,,,04 mayo 2022,108,2022-05-04_07h48.02.517,tareaTDv3,2020.2.5,Win32,60,,,right,0.0,3.6503,0.0,19.0,19.0,40.0,1.0,5000.0,0.0,14000.0,31.0
,,,,,,,,,,,,,,,,,,,,,,,04 mayo 2022,108,2022-05-04_07h48.02.517,tareaTDv3,2020.2.5,Win32,60,,,right,0.0,1.3178,0.0,20.0,20.0,44.0,1.0,5000.0,0.0,150000.0,30.0
,,,,,,,,,,,,,,,,,,,,,,,04 mayo 2022,108,2022-05-04_07h48.02.517,tareaTDv3,2020.2.5,Win32,60,,,left,0.0,2.8605,0.0,21.0,21.0,82.0,1.0,25000.0,0.0,75000.0,90.0
,,,,,,,,,,,,,,,,,,,,,,,04 mayo 2022,108,2022-05-04_07h48.02.517,tareaTDv3,2020.2.5,Win32,60,,,left,1.0,4.3036,0.0,22.0,22.0,13.0,1.0,10000.0,0.0,111000.0,30.0
,,,,,,,,,,,,,,,,,,,,,,,04 mayo 2022,108,2022-05-04_07h48.02.517,tareaTDv3,2020.2.5,Win32,60,,,left,1.0,2.1681,0.0,23.0,23.0,49.0,1.0,5000.0,0.0,149000.0,59.0
,,,,,,,,,,,,,,,,,,,,,,,04 mayo 2022,108,2022-05-04_07h48.02.517,tareaTDv3,2020.2.5,Win32,60,,,right,1.0,1.7676,0.0,24.0,24.0,37.0,1.0,5000.0,0.0,56000.0,9.0
,,,,,,,,,,,,,,,,,,,,,,,04 mayo 2022,108,2022-05-04_07h48.02.517,tareaTDv3,2020.2.5,Win32,60,,,right,0.0,2.3366,0.0,25.0,25.0,78.0,1.0,25000.0,0.0,125000.0,59.0
,,,,,,,,,,,,,,,,,,,,,,,04 mayo 2022,108,2022-05-04_07h48.02.517,tareaTDv3,2020.2.5,Win32,60,,,left,1.0,1.2968,0.0,26.0,26.0,4.0,1.0,10000.0,0.0,150000.0,5.0
,,,,,,,,,,,,,,,,,,,,,,,04 mayo 2022,108,2022-05-04_07h48.02.517,tareaTDv3,2020.2.5,Win32,60,,,right,0.0,2.0236,0.0,27.0,27.0,51.0,1.0,5000.0,0.0,35000.0,89.0
,,,,,,,,,,,,,,,,,,,,,,,04 mayo 2022,108,2022-05-04_07h48.02.517,tareaTDv3,2020.2.5,Win32,60,,,left,1.0,1.6398,0.0,28.0,28.0,46.0,1.0,5000.0,0.0,36000.0,61.0
,,,,,,,,,,,,,,,,,,,,,,,04 mayo 2022,108,2022-05-04_07h48.02.517,tareaTDv3,2020.2.5,Win32,60,,,right,0.0,4.1243,0.0,29.0,29.0,87.0,1.0,25000.0,0.0,75000.0,151.0
,,,,,,,,,,,,,,,,,,,,,,,04 mayo 2022,108,2022-05-04_07h48.02.517,tareaTDv3,2020.2.5,Win32,60,,,left,1.0,2.6021,0.0,30.0,30.0,35.0,1.0,5000.0,0.0,15000.0,11.0
,,,,,,,,,,,,,,,,,,,,,,,04 mayo 2022,108,2022-05-04_07h48.02.517,tareaTDv3,2020.2.5,Win32,60,,,right,0.0,3.5525,0.0,31.0,31.0,24.0,1.0,10000.0,0.0,149000.0,89.0
,,,,,,,,,,,,,,,,,,,,,,,04 mayo 2022,108,2022-05-04_07h48.02.517,tareaTDv3,2020.2.5,Win32,60,,,left,1.0,2.1529,0.0,32.0,32.0,64.0,1.0,25000.0,0.0,150000.0,4.0
,,,,,,,,,,,,,,,,,,,,,,,04 mayo 2022,108,2022-05-04_07h48.02.517,tareaTDv3,2020.2.5,Win32,60,,,right,0.0,3.0672,0.0,33.0,33.0,10.0,1.0,10000.0,0.0,21000.0,31.0
,,,,,,,,,,,,,,,,,,,,,,,04 mayo 2022,108,2022-05-04_07h48.02.517,tareaTDv3,2020.2.5,Win32,60,,,left,0.0,3.4892,0.0,34.0,34.0,25.0,1.0,10000.0,0.0,10000.0,150.0
,,,,,,,,,,,,,,,,,,,,,,,04 mayo 2022,108,2022-05-04_07h48.02.517,tareaTDv3,2020.2.5,Win32,60,,,right,1.0,1.6029,0.0,35.0,35.0,38.0,1.0,5000.0,0.0,104000.0,10.0
,,,,,,,,,,,,,,,,,,,,,,,04 mayo 2022,108,2022-05-04_07h48.02.517,tareaTDv3,2020.2.5,Win32,60,,,left,0.0,2.4326,0.0,36.0,36.0,73.0,1.0,25000.0,0.0,125000.0,31.0
,,,,,,,,,,,,,,,,,,,,,,,04 mayo 2022,108,2022-05-04_07h48.02.517,tareaTDv3,2020.2.5,Win32,60,,,left,1.0,1.7496,0.0,37.0,37.0,31.0,1.0,5000.0,0.0,35000.0,6.0
,,,,,,,,,,,,,,,,,,,,,,,04 mayo 2022,108,2022-05-04_07h48.02.517,tareaTDv3,2020.2.5,Win32,60,,,right,1.0,4.847,0.0,38.0,38.0,89.0,1.0,25000.0,0.0,150000.0,150.0
,,,,,,,,,,,,,,,,,,,,,,,04 mayo 2022,108,2022-05-04_07h48.02.517,tareaTDv3,2020.2.5,Win32,60,,,left,1.0,2.4183,0.0,39.0,39.0,3.0,1.0,10000.0,0.0,109000.0,5.0
,,,,,,,,,,,,,,,,,,,,,,,04 mayo 2022,108,2022-05-04_07h48.02.517,tareaTDv3,2020.2.5,Win32,60,,,left,0.0,1.7827,0.0,40.0,40.0,12.0,1.0,10000.0,0.0,60000.0,29.0
,,,,,,,,,,,,,,,,,,,,,,,04 mayo 2022,108,2022-05-04_07h48.02.517,tareaTDv3,2020.2.5,Win32,60,,,right,1.0,2.8937,0.0,41.0,41.0,43.0,1.0,5000.0,0.0,106000.0,29.0
,,,,,,,,,,,,,,,,,,,,,,,04 mayo 2022,108,2022-05-04_07h48.02.517,tareaTDv3,2020.2.5,Win32,60,,,right,1.0,1.5637,0.0,42.0,42.0,34.0,1.0,5000.0,0.0,151000.0,4.0
,,,,,,,,,,,,,,,,,,,,,,,04 mayo 2022,108,2022-05-04_07h48.02.517,tareaTDv3,2020.2.5,Win32,60,,,right,1.0,2.8428,0.0,43.0,43.0,9.0,1.0,10000.0,0.0,151000.0,11.0
,,,,,,,,,,,,,,,,,,,,,,,04 mayo 2022,108,2022-05-04_07h48.02.517,tareaTDv3,2020.2.5,Win32,60,,,left,1.0,2.3506,0.0,44.0,44.0,68.0,1.0,25000.0,0.0,125000.0,9.0
,,,,,,,,,,,,,,,,,,,,,,,04 mayo 2022,108,2022-05-04_07h48.02.517,tareaTDv3,2020.2.5,Win32,60,,,left,0.0,2.134,0.0,45.0,45.0,45.0,1.0,5000.0,0.0,15000.0,61.0
,,,,,,,,,,,,,,,,,,,,,,,04 mayo 2022,108,2022-05-04_07h48.02.517,tareaTDv3,2020.2.5,Win32,60,,,right,1.0,1.8989,0.0,46.0,46.0,69.0,1.0,25000.0,0.0,150000.0,9.0
,,,,,,,,,,,,,,,,,,,,,,,04 mayo 2022,108,2022-05-04_07h48.02.517,tareaTDv3,2020.2.5,Win32,60,,,right,1.0,1.9497,0.0,47.0,47.0,32.0,1.0,5000.0,0.0,54000.0,5.0
,,,,,,,,,,,,,,,,,,,,,,,04 mayo 2022,108,2022-05-04_07h48.02.517,tareaTDv3,2020.2.5,Win32,60,,,left,0.0,2.0507,0.0,48.0,48.0,20.0,1.0,10000.0,0.0,20000.0,90.0
,,,,,,,,,,,,,,,,,,,,,,,04 mayo 2022,108,2022-05-04_07h48.02.517,tareaTDv3,2020.2.5,Win32,60,,,right,0.0,1.8823,0.0,49.0,49.0,55.0,1.0,5000.0,0.0,14000.0,149.0
,,,,,,,,,,,,,,,,,,,,,,,04 mayo 2022,108,2022-05-04_07h48.02.517,tareaTDv3,2020.2.5,Win32,60,,,left,0.0,1.9349,0.0,50.0,50.0,84.0,1.0,25000.0,0.0,150000.0,89.0
,,,,,,,,,,,,,,,,,,,,,,,04 mayo 2022,108,2022-05-04_07h48.02.517,tareaTDv3,2020.2.5,Win32,60,,,right,0.0,1.724,0.0,51.0,51.0,80.0,1.0,25000.0,0.0,35000.0,90.0
,,,,,,,,,,,,,,,,,,,,,,,04 mayo 2022,108,2022-05-04_07h48.02.517,tareaTDv3,2020.2.5,Win32,60,,,right,0.0,3.6523,0.0,52.0,52.0,5.0,1.0,10000.0,0.0,19000.0,11.0
,,,,,,,,,,,,,,,,,,,,,,,04 mayo 2022,108,2022-05-04_07h48.02.517,tareaTDv3,2020.2.5,Win32,60,,,right,1.0,1.2413,0.0,53.0,53.0,39.0,1.0,5000.0,0.0,149000.0,10.0
,,,,,,,,,,,,,,,,,,,,,,,04 mayo 2022,108,2022-05-04_07h48.02.517,tareaTDv3,2020.2.5,Win32,60,,,right,0.0,5.1212,0.0,54.0,54.0,41.0,1.0,5000.0,0.0,35000.0,31.0
,,,,,,,,,,,,,,,,,,,,,,,04 mayo 2022,108,2022-05-04_07h48.02.517,tareaTDv3,2020.2.5,Win32,60,,,right,0.0,3.4505,0.0,55.0,55.0,83.0,1.0,25000.0,0.0,125000.0,89.0
,,,,,,,,,,,,,,,,,,,,,,,04 mayo 2022,108,2022-05-04_07h48.02.517,tareaTDv3,2020.2.5,Win32,60,,,right,1.0,5.522,0.0,56.0,56.0,67.0,1.0,25000.0,0.0,75000.0,10.0
,,,,,,,,,,,,,,,,,,,,,,,04 mayo 2022,108,2022-05-04_07h48.02.517,tareaTDv3,2020.2.5,Win32,60,,,left,0.0,2.5512,0.0,57.0,57.0,27.0,1.0,10000.0,0.0,61000.0,150.0
,,,,,,,,,,,,,,,,,,,,,,,04 mayo 2022,108,2022-05-04_07h48.02.517,tareaTDv3,2020.2.5,Win32,60,,,left,0.0,3.5866,0.0,58.0,58.0,0.0,1.0,10000.0,0.0,20000.0,5.0
,,,,,,,,,,,,,,,,,,,,,,,04 mayo 2022,108,2022-05-04_07h48.02.517,tareaTDv3,2020.2.5,Win32,60,,,left,0.0,2.3376,0.0,59.0,59.0,23.0,1.0,10000.0,0.0,110000.0,90.0
,,,,,,,,,,,,,,,,,,,,,,,04 mayo 2022,108,2022-05-04_07h48.02.517,tareaTDv3,2020.2.5,Win32,60,,,left,0.0,3.8827,0.0,60.0,60.0,50.0,1.0,5000.0,0.0,15000.0,91.0
,,,,,,,,,,,,,,,,,,,,,,,04 mayo 2022,108,2022-05-04_07h48.02.517,tareaTDv3,2020.2.5,Win32,60,,,left,1.0,2.049,0.0,61.0,61.0,8.0,1.0,10000.0,0.0,111000.0,10.0
,,,,,,,,,,,,,,,,,,,,,,,04 mayo 2022,108,2022-05-04_07h48.02.517,tareaTDv3,2020.2.5,Win32,60,,,right,0.0,5.1083,0.0,62.0,62.0,81.0,1.0,25000.0,0.0,55000.0,90.0
,,,,,,,,,,,,,,,,,,,,,,,04 mayo 2022,108,2022-05-04_07h48.02.517,tareaTDv3,2020.2.5,Win32,60,,,left,0.0,3.444,0.0,63.0,63.0,58.0,1.0,5000.0,0.0,106000.0,152.0
,,,,,,,,,,,,,,,,,,,,,,,04 mayo 2022,108,2022-05-04_07h48.02.517,tareaTDv3,2020.2.5,Win32,60,,,right,1.0,2.4057,0.0,64.0,64.0,54.0,1.0,5000.0,0.0,150000.0,90.0
,,,,,,,,,,,,,,,,,,,,,,,04 mayo 2022,108,2022-05-04_07h48.02.517,tareaTDv3,2020.2.5,Win32,60,,,left,1.0,4.5223,0.0,65.0,65.0,62.0,1.0,25000.0,0.0,75000.0,5.0
,,,,,,,,,,,,,,,,,,,,,,,04 mayo 2022,108,2022-05-04_07h48.02.517,tareaTDv3,2020.2.5,Win32,60,,,right,0.0,3.3827,0.0,66.0,66.0,85.0,1.0,25000.0,0.0,35000.0,150.0
,,,,,,,,,,,,,,,,,,,,,,,04 mayo 2022,108,2022-05-04_07h48.02.517,tareaTDv3,2020.2.5,Win32,60,,,left,0.0,5.5793,0.0,67.0,67.0,17.0,1.0,10000.0,0.0,60000.0,60.0
,,,,,,,,,,,,,,,,,,,,,,,04 mayo 2022,108,2022-05-04_07h48.02.517,tareaTDv3,2020.2.5,Win32,60,,,right,0.0,3.3004,0.0,68.0,68.0,14.0,1.0,10000.0,0.0,150000.0,30.0
,,,,,,,,,,,,,,,,,,,,,,,04 mayo 2022,108,2022-05-04_07h48.02.517,tareaTDv3,2020.2.5,Win32,60,,,right,1.0,2.8505,0.0,69.0,69.0,61.0,1.0,25000.0,0.0,55000.0,6.0
,,,,,,,,,,,,,,,,,,,,,,,04 mayo 2022,108,2022-05-04_07h48.02.517,tareaTDv3,2020.2.5,Win32,60,,,right,0.0,5.0545,0.0,70.0,70.0,52.0,1.0,5000.0,0.0,56000.0,89.0
,,,,,,,,,,,,,,,,,,,,,,,04 mayo 2022,108,2022-05-04_07h48.02.517,tareaTDv3,2020.2.5,Win32,60,,,left,0.0,5.9085,0.0,71.0,71.0,28.0,1.0,10000.0,0.0,109000.0,149.0
,,,,,,,,,,,,,,,,,,,,,,,04 mayo 2022,108,2022-05-04_07h48.02.517,tareaTDv3,2020.2.5,Win32,60,,,right,1.0,4.6342,0.0,72.0,72.0,7.0,1.0,10000.0,0.0,59000.0,9.0
,,,,,,,,,,,,,,,,,,,,,,,04 mayo 2022,108,2022-05-04_07h48.02.517,tareaTDv3,2020.2.5,Win32,60,,,left,0.0,3.8712,0.0,73.0,73.0,16.0,1.0,10000.0,0.0,39000.0,59.0
,,,,,,,,,,,,,,,,,,,,,,,04 mayo 2022,108,2022-05-04_07h48.02.517,tareaTDv3,2020.2.5,Win32,60,,,right,1.0,2.2997,0.0,74.0,74.0,70.0,1.0,25000.0,0.0,35000.0,30.0
,,,,,,,,,,,,,,,,,,,,,,,04 mayo 2022,108,2022-05-04_07h48.02.517,tareaTDv3,2020.2.5,Win32,60,,,right,0.0,2.2343,0.0,75.0,75.0,22.0,1.0,10000.0,0.0,61000.0,89.0
,,,,,,,,,,,,,,,,,,,,,,,04 mayo 2022,108,2022-05-04_07h48.02.517,tareaTDv3,2020.2.5,Win32,60,,,left,0.0,3.3744,0.0,76.0,76.0,59.0,1.0,5000.0,0.0,151000.0,150.0
,,,,,,,,,,,,,,,,,,,,,,,04 mayo 2022,108,2022-05-04_07h48.02.517,tareaTDv3,2020.2.5,Win32,60,,,left,0.0,1.859,0.0,77.0,77.0,48.0,1.0,5000.0,0.0,105000.0,60.0
,,,,,,,,,,,,,,,,,,,,,,,04 mayo 2022,108,2022-05-04_07h48.02.517,tareaTDv3,2020.2.5,Win32,60,,,right,1.0,2.1342,0.0,78.0,78.0,6.0,1.0,10000.0,0.0,40000.0,10.0
,,,,,,,,,,,,,,,,,,,,,,,04 mayo 2022,108,2022-05-04_07h48.02.517,tareaTDv3,2020.2.5,Win32,60,,,left,0.0,1.6159,0.0,79.0,79.0,29.0,1.0,10000.0,0.0,151000.0,151.0
,,,,,,,,,,,,,,,,,,,,,,,04 mayo 2022,108,2022-05-04_07h48.02.517,tareaTDv3,2020.2.5,Win32,60,,,left,0.0,5.0772,0.0,80.0,80.0,79.0,1.0,25000.0,0.0,150000.0,61.0
,,,,,,,,,,,,,,,,,,,,,,,04 mayo 2022,108,2022-05-04_07h48.02.517,tareaTDv3,2020.2.5,Win32,60,,,right,0.0,2.144,0.0,81.0,81.0,57.0,1.0,5000.0,0.0,55000.0,151.0
,,,,,,,,,,,,,,,,,,,,,,,04 mayo 2022,108,2022-05-04_07h48.02.517,tareaTDv3,2020.2.5,Win32,60,,,left,0.0,2.6676,0.0,82.0,82.0,53.0,1.0,5000.0,0.0,104000.0,90.0
,,,,,,,,,,,,,,,,,,,,,,,04 mayo 2022,108,2022-05-04_07h48.02.517,tareaTDv3,2020.2.5,Win32,60,,,right,1.0,1.6833,0.0,83.0,83.0,65.0,1.0,25000.0,0.0,35000.0,11.0
,,,,,,,,,,,,,,,,,,,,,,,04 mayo 2022,108,2022-05-04_07h48.02.517,tareaTDv3,2020.2.5,Win32,60,,,right,0.0,2.4379,0.0,84.0,84.0,11.0,1.0,10000.0,0.0,39000.0,29.0
,,,,,,,,,,,,,,,,,,,,,,,04 mayo 2022,108,2022-05-04_07h48.02.517,tareaTDv3,2020.2.5,Win32,60,,,right,0.0,1.8172,0.0,85.0,85.0,15.0,1.0,10000.0,0.0,20000.0,59.0
,,,,,,,,,,,,,,,,,,,,,,,04 mayo 2022,108,2022-05-04_07h48.02.517,tareaTDv3,2020.2.5,Win32,60,,,left,0.0,0.5036,0.0,86.0,86.0,86.0,1.0,25000.0,0.0,55000.0,151.0
,,,,,,,,,,,,,,,,,,,,,,,04 mayo 2022,108,2022-05-04_07h48.02.517,tareaTDv3,2020.2.5,Win32,60,,,right,0.0,1.4713,0.0,87.0,87.0,76.0,1.0,25000.0,0.0,55000.0,60.0
,,,,,,,,,,,,,,,,,,,,,,,04 mayo 2022,108,2022-05-04_07h48.02.517,tareaTDv3,2020.2.5,Win32,60,,,left,1.0,2.8407,0.0,88.0,88.0,18.0,1.0,10000.0,0.0,110000.0,60.0
,,,,,,,,,,,,,,,,,,,,,,,04 mayo 2022,108,2022-05-04_07h48.02.517,tareaTDv3,2020.2.5,Win32,60,,,right,0.0,0.7799,0.0,89.0,89.0,77.0,1.0,25000.0,0.0,75000.0,59.0
