key1_keys,key1_rt,key2_keys,key2_rt,key2_2_keys,key2_2_rt,key2_3_keys,key2_3_rt,key3_keys,key3_rt,key4_keys,key4_rt,respP_keys,respP_corr,respP_rt,Practice_thisRepN,Practice_thisTrialN,Practice_thisN,Practice_thisIndex,Practice_ran,ssAmount,llAmount,llDelay,session,participant,date,expName,psychopyVersion,OS,frameRate,key5_keys,key5_rt,respT_keys,respT_corr,respT_rt,trials_thisRepN,trials_thisTrialN,trials_thisN,trials_thisIndex,trials_ran,ss_am,ss_del,ll_am,ll_del
space,6.5016,space,32.389,space,11.8287,space,4.1666,right,8.0738,space,3.2018,right,0.0,4.06,0.0,0.0,0.0,1.0,1.0,25000.0,35000.0,150.0,13/11/2021,110,2021-11-13_11h06.19.844,tareaTDv3,2020.2.5,Win32,60,,,,,,,,,,,,,,
,,,,,,,,,,,,right,0.0,4.8139,0.0,1.0,1.0,2.0,1.0,10000.0,19000.0,89.0,13/11/2021,110,2021-11-13_11h06.19.844,tareaTDv3,2020.2.5,Win32,60,,,,,,,,,,,,,,
,,,,,,,,,,,,left,1.0,3.551,0.0,2.0,2.0,0.0,1.0,10000.0,109000.0,9.0,13/11/2021,110,2021-11-13_11h06.19.844,tareaTDv3,2020.2.5,Win32,60,,,,,,,,,,,,,,
,,,,,,,,,,,,,,,,,,,,,,,13/11/2021,110,2021-11-13_11h06.19.844,tareaTDv3,2020.2.5,Win32,60,g,6.3713,right,0.0,2.5259,0.0,0.0,0.0,75.0,1.0,25000.0,0.0,35000.0,60.0
,,,,,,,,,,,,,,,,,,,,,,,13/11/2021,110,2021-11-13_11h06.19.844,tareaTDv3,2020.2.5,Win32,60,,,right,1.0,2.334,0.0,1.0,1.0,69.0,1.0,25000.0,0.0,150000.0,9.0
,,,,,,,,,,,,,,,,,,,,,,,13/11/2021,110,2021-11-13_11h06.19.844,tareaTDv3,2020.2.5,Win32,60,,,right,1.0,2.9168,0.0,2.0,2.0,30.0,1.0,5000.0,0.0,16000.0,4.0
,,,,,,,,,,,,,,,,,,,,,,,13/11/2021,110,2021-11-13_11h06.19.844,tareaTDv3,2020.2.5,Win32,60,,,right,1.0,1.9661,0.0,3.0,3.0,37.0,1.0,5000.0,0.0,56000.0,9.0
,,,,,,,,,,,,,,,,,,,,,,,13/11/2021,110,2021-11-13_11h06.19.844,tareaTDv3,2020.2.5,Win32,60,,,left,1.0,4.1516,0.0,4.0,4.0,76.0,1.0,25000.0,0.0,55000.0,60.0
,,,,,,,,,,,,,,,,,,,,,,,13/11/2021,110,2021-11-13_11h06.19.844,tareaTDv3,2020.2.5,Win32,60,,,left,1.0,1.4096,0.0,5.0,5.0,36.0,1.0,5000.0,0.0,36000.0,9.0
,,,,,,,,,,,,,,,,,,,,,,,13/11/2021,110,2021-11-13_11h06.19.844,tareaTDv3,2020.2.5,Win32,60,,,left,1.0,3.676,0.0,6.0,6.0,61.0,1.0,25000.0,0.0,55000.0,6.0
,,,,,,,,,,,,,,,,,,,,,,,13/11/2021,110,2021-11-13_11h06.19.844,tareaTDv3,2020.2.5,Win32,60,,,right,1.0,1.2924,0.0,7.0,7.0,31.0,1.0,5000.0,0.0,35000.0,6.0
,,,,,,,,,,,,,,,,,,,,,,,13/11/2021,110,2021-11-13_11h06.19.844,tareaTDv3,2020.2.5,Win32,60,,,left,1.0,2.3838,0.0,8.0,8.0,57.0,1.0,5000.0,0.0,55000.0,151.0
,,,,,,,,,,,,,,,,,,,,,,,13/11/2021,110,2021-11-13_11h06.19.844,tareaTDv3,2020.2.5,Win32,60,,,right,1.0,2.5109,0.0,9.0,9.0,22.0,1.0,10000.0,0.0,61000.0,89.0
,,,,,,,,,,,,,,,,,,,,,,,13/11/2021,110,2021-11-13_11h06.19.844,tareaTDv3,2020.2.5,Win32,60,,,right,1.0,2.6536,0.0,10.0,10.0,59.0,1.0,5000.0,0.0,151000.0,150.0
,,,,,,,,,,,,,,,,,,,,,,,13/11/2021,110,2021-11-13_11h06.19.844,tareaTDv3,2020.2.5,Win32,60,,,right,1.0,1.8008,0.0,11.0,11.0,3.0,1.0,10000.0,0.0,109000.0,5.0
,,,,,,,,,,,,,,,,,,,,,,,13/11/2021,110,2021-11-13_11h06.19.844,tareaTDv3,2020.2.5,Win32,60,,,right,1.0,6.6894,0.0,12.0,12.0,83.0,1.0,25000.0,0.0,125000.0,89.0
,,,,,,,,,,,,,,,,,,,,,,,13/11/2021,110,2021-11-13_11h06.19.844,tareaTDv3,2020.2.5,Win32,60,,,right,1.0,1.9927,0.0,13.0,13.0,56.0,1.0,5000.0,0.0,35000.0,150.0
,,,,,,,,,,,,,,,,,,,,,,,13/11/2021,110,2021-11-13_11h06.19.844,tareaTDv3,2020.2.5,Win32,60,,,right,0.0,17.8046,0.0,14.0,14.0,77.0,1.0,25000.0,0.0,75000.0,59.0
,,,,,,,,,,,,,,,,,,,,,,,13/11/2021,110,2021-11-13_11h06.19.844,tareaTDv3,2020.2.5,Win32,60,,,right,0.0,2.8546,0.0,15.0,15.0,10.0,1.0,10000.0,0.0,21000.0,31.0
,,,,,,,,,,,,,,,,,,,,,,,13/11/2021,110,2021-11-13_11h06.19.844,tareaTDv3,2020.2.5,Win32,60,,,left,1.0,3.6077,0.0,16.0,16.0,11.0,1.0,10000.0,0.0,39000.0,29.0
,,,,,,,,,,,,,,,,,,,,,,,13/11/2021,110,2021-11-13_11h06.19.844,tareaTDv3,2020.2.5,Win32,60,,,left,1.0,3.0849,0.0,17.0,17.0,21.0,1.0,10000.0,0.0,40000.0,91.0
,,,,,,,,,,,,,,,,,,,,,,,13/11/2021,110,2021-11-13_11h06.19.844,tareaTDv3,2020.2.5,Win32,60,,,right,1.0,3.8575,0.0,18.0,18.0,26.0,1.0,10000.0,0.0,39000.0,150.0
,,,,,,,,,,,,,,,,,,,,,,,13/11/2021,110,2021-11-13_11h06.19.844,tareaTDv3,2020.2.5,Win32,60,,,left,0.0,6.8903,0.0,19.0,19.0,72.0,1.0,25000.0,0.0,75000.0,31.0
,,,,,,,,,,,,,,,,,,,,,,,13/11/2021,110,2021-11-13_11h06.19.844,tareaTDv3,2020.2.5,Win32,60,,,right,0.0,1.8839,0.0,20.0,20.0,71.0,1.0,25000.0,0.0,55000.0,30.0
,,,,,,,,,,,,,,,,,,,,,,,13/11/2021,110,2021-11-13_11h06.19.844,tareaTDv3,2020.2.5,Win32,60,,,left,1.0,1.5847,0.0,21.0,21.0,55.0,1.0,5000.0,0.0,14000.0,149.0
,,,,,,,,,,,,,,,,,,,,,,,13/11/2021,110,2021-11-13_11h06.19.844,tareaTDv3,2020.2.5,Win32,60,,,right,1.0,3.1562,0.0,22.0,22.0,46.0,1.0,5000.0,0.0,36000.0,61.0
,,,,,,,,,,,,,,,,,,,,,,,13/11/2021,110,2021-11-13_11h06.19.844,tareaTDv3,2020.2.5,Win32,60,,,left,1.0,0.8086,0.0,23.0,23.0,28.0,1.0,10000.0,0.0,109000.0,149.0
,,,,,,,,,,,,,,,,,,,,,,,13/11/2021,110,2021-11-13_11h06.19.844,tareaTDv3,2020.2.5,Win32,60,,,left,1.0,1.8197,0.0,24.0,24.0,32.0,1.0,5000.0,0.0,54000.0,5.0
,,,,,,,,,,,,,,,,,,,,,,,13/11/2021,110,2021-11-13_11h06.19.844,tareaTDv3,2020.2.5,Win32,60,,,left,1.0,1.4174,0.0,25.0,25.0,54.0,1.0,5000.0,0.0,150000.0,90.0
,,,,,,,,,,,,,,,,,,,,,,,13/11/2021,110,2021-11-13_11h06.19.844,tareaTDv3,2020.2.5,Win32,60,,,right,1.0,2.5433,0.0,26.0,26.0,84.0,1.0,25000.0,0.0,150000.0,89.0
,,,,,,,,,,,,,,,,,,,,,,,13/11/2021,110,2021-11-13_11h06.19.844,tareaTDv3,2020.2.5,Win32,60,,,left,1.0,1.0335,0.0,27.0,27.0,44.0,1.0,5000.0,0.0,150000.0,30.0
,,,,,,,,,,,,,,,,,,,,,,,13/11/2021,110,2021-11-13_11h06.19.844,tareaTDv3,2020.2.5,Win32,60,,,right,1.0,1.7349,0.0,28.0,28.0,0.0,1.0,10000.0,0.0,20000.0,5.0
,,,,,,,,,,,,,,,,,,,,,,,13/11/2021,110,2021-11-13_11h06.19.844,tareaTDv3,2020.2.5,Win32,60,,,left,1.0,1.4764,0.0,29.0,29.0,47.0,1.0,5000.0,0.0,56000.0,60.0
,,,,,,,,,,,,,,,,,,,,,,,13/11/2021,110,2021-11-13_11h06.19.844,tareaTDv3,2020.2.5,Win32,60,,,right,1.0,3.5347,0.0,30.0,30.0,74.0,1.0,25000.0,0.0,150000.0,29.0
,,,,,,,,,,,,,,,,,,,,,,,13/11/2021,110,2021-11-13_11h06.19.844,tareaTDv3,2020.2.5,Win32,60,,,right,1.0,1.5684,0.0,31.0,31.0,89.0,1.0,25000.0,0.0,150000.0,150.0
,,,,,,,,,,,,,,,,,,,,,,,13/11/2021,110,2021-11-13_11h06.19.844,tareaTDv3,2020.2.5,Win32,60,,,left,1.0,1.9252,0.0,32.0,32.0,53.0,1.0,5000.0,0.0,104000.0,90.0
,,,,,,,,,,,,,,,,,,,,,,,13/11/2021,110,2021-11-13_11h06.19.844,tareaTDv3,2020.2.5,Win32,60,,,left,1.0,1.1667,0.0,33.0,33.0,27.0,1.0,10000.0,0.0,61000.0,150.0
,,,,,,,,,,,,,,,,,,,,,,,13/11/2021,110,2021-11-13_11h06.19.844,tareaTDv3,2020.2.5,Win32,60,,,right,1.0,1.0392,0.0,34.0,34.0,49.0,1.0,5000.0,0.0,149000.0,59.0
,,,,,,,,,,,,,,,,,,,,,,,13/11/2021,110,2021-11-13_11h06.19.844,tareaTDv3,2020.2.5,Win32,60,,,right,1.0,1.8347,0.0,35.0,35.0,4.0,1.0,10000.0,0.0,150000.0,5.0
,,,,,,,,,,,,,,,,,,,,,,,13/11/2021,110,2021-11-13_11h06.19.844,tareaTDv3,2020.2.5,Win32,60,,,right,1.0,1.5055,0.0,36.0,36.0,73.0,1.0,25000.0,0.0,125000.0,31.0
,,,,,,,,,,,,,,,,,,,,,,,13/11/2021,110,2021-11-13_11h06.19.844,tareaTDv3,2020.2.5,Win32,60,,,left,1.0,4.4238,0.0,37.0,37.0,19.0,1.0,10000.0,0.0,149000.0,61.0
,,,,,,,,,,,,,,,,,,,,,,,13/11/2021,110,2021-11-13_11h06.19.844,tareaTDv3,2020.2.5,Win32,60,,,left,1.0,1.3382,0.0,38.0,38.0,88.0,1.0,25000.0,0.0,125000.0,149.0
,,,,,,,,,,,,,,,,,,,,,,,13/11/2021,110,2021-11-13_11h06.19.844,tareaTDv3,2020.2.5,Win32,60,,,right,1.0,3.2711,0.0,39.0,39.0,40.0,1.0,5000.0,0.0,14000.0,31.0
,,,,,,,,,,,,,,,,,,,,,,,13/11/2021,110,2021-11-13_11h06.19.844,tareaTDv3,2020.2.5,Win32,60,,,left,1.0,0.8232,0.0,40.0,40.0,29.0,1.0,10000.0,0.0,151000.0,151.0
,,,,,,,,,,,,,,,,,,,,,,,13/11/2021,110,2021-11-13_11h06.19.844,tareaTDv3,2020.2.5,Win32,60,,,left,1.0,2.1213,0.0,41.0,41.0,60.0,1.0,25000.0,0.0,35000.0,5.0
,,,,,,,,,,,,,,,,,,,,,,,13/11/2021,110,2021-11-13_11h06.19.844,tareaTDv3,2020.2.5,Win32,60,,,right,1.0,1.6232,0.0,42.0,42.0,81.0,1.0,25000.0,0.0,55000.0,90.0
,,,,,,,,,,,,,,,,,,,,,,,13/11/2021,110,2021-11-13_11h06.19.844,tareaTDv3,2020.2.5,Win32,60,,,right,1.0,1.1169,0.0,43.0,43.0,52.0,1.0,5000.0,0.0,56000.0,89.0
,,,,,,,,,,,,,,,,,,,,,,,13/11/2021,110,2021-11-13_11h06.19.844,tareaTDv3,2020.2.5,Win32,60,,,right,0.0,1.8072,0.0,44.0,44.0,5.0,1.0,10000.0,0.0,19000.0,11.0
,,,,,,,,,,,,,,,,,,,,,,,13/11/2021,110,2021-11-13_11h06.19.844,tareaTDv3,2020.2.5,Win32,60,,,right,1.0,2.0264,0.0,45.0,45.0,7.0,1.0,10000.0,0.0,59000.0,9.0
,,,,,,,,,,,,,,,,,,,,,,,13/11/2021,110,2021-11-13_11h06.19.844,tareaTDv3,2020.2.5,Win32,60,,,right,1.0,1.2124,0.0,46.0,46.0,34.0,1.0,5000.0,0.0,151000.0,4.0
,,,,,,,,,,,,,,,,,,,,,,,13/11/2021,110,2021-11-13_11h06.19.844,tareaTDv3,2020.2.5,Win32,60,,,left,1.0,1.487,0.0,47.0,47.0,63.0,1.0,25000.0,0.0,125000.0,4.0
,,,,,,,,,,,,,,,,,,,,,,,13/11/2021,110,2021-11-13_11h06.19.844,tareaTDv3,2020.2.5,Win32,60,,,right,1.0,1.7841,0.0,48.0,48.0,51.0,1.0,5000.0,0.0,35000.0,89.0
,,,,,,,,,,,,,,,,,,,,,,,13/11/2021,110,2021-11-13_11h06.19.844,tareaTDv3,2020.2.5,Win32,60,,,right,1.0,3.9696,0.0,49.0,49.0,62.0,1.0,25000.0,0.0,75000.0,5.0
,,,,,,,,,,,,,,,,,,,,,,,13/11/2021,110,2021-11-13_11h06.19.844,tareaTDv3,2020.2.5,Win32,60,,,right,1.0,1.077,0.0,50.0,50.0,12.0,1.0,10000.0,0.0,60000.0,29.0
,,,,,,,,,,,,,,,,,,,,,,,13/11/2021,110,2021-11-13_11h06.19.844,tareaTDv3,2020.2.5,Win32,60,,,right,1.0,0.7014,0.0,51.0,51.0,48.0,1.0,5000.0,0.0,105000.0,60.0
,,,,,,,,,,,,,,,,,,,,,,,13/11/2021,110,2021-11-13_11h06.19.844,tareaTDv3,2020.2.5,Win32,60,,,right,1.0,1.2364,0.0,52.0,52.0,42.0,1.0,5000.0,0.0,56000.0,29.0
,,,,,,,,,,,,,,,,,,,,,,,13/11/2021,110,2021-11-13_11h06.19.844,tareaTDv3,2020.2.5,Win32,60,,,right,1.0,0.9182,0.0,53.0,53.0,86.0,1.0,25000.0,0.0,55000.0,151.0
,,,,,,,,,,,,,,,,,,,,,,,13/11/2021,110,2021-11-13_11h06.19.844,tareaTDv3,2020.2.5,Win32,60,,,left,1.0,3.3839,0.0,54.0,54.0,78.0,1.0,25000.0,0.0,125000.0,59.0
,,,,,,,,,,,,,,,,,,,,,,,13/11/2021,110,2021-11-13_11h06.19.844,tareaTDv3,2020.2.5,Win32,60,,,left,1.0,1.5347,0.0,55.0,55.0,67.0,1.0,25000.0,0.0,75000.0,10.0
,,,,,,,,,,,,,,,,,,,,,,,13/11/2021,110,2021-11-13_11h06.19.844,tareaTDv3,2020.2.5,Win32,60,,,left,1.0,1.4281,0.0,56.0,56.0,82.0,1.0,25000.0,0.0,75000.0,90.0
,,,,,,,,,,,,,,,,,,,,,,,13/11/2021,110,2021-11-13_11h06.19.844,tareaTDv3,2020.2.5,Win32,60,,,left,1.0,1.6177,0.0,57.0,57.0,43.0,1.0,5000.0,0.0,106000.0,29.0
,,,,,,,,,,,,,,,,,,,,,,,13/11/2021,110,2021-11-13_11h06.19.844,tareaTDv3,2020.2.5,Win32,60,,,left,1.0,1.0719,0.0,58.0,58.0,79.0,1.0,25000.0,0.0,150000.0,61.0
,,,,,,,,,,,,,,,,,,,,,,,13/11/2021,110,2021-11-13_11h06.19.844,tareaTDv3,2020.2.5,Win32,60,,,right,0.0,1.1567,0.0,59.0,59.0,65.0,1.0,25000.0,0.0,35000.0,11.0
,,,,,,,,,,,,,,,,,,,,,,,13/11/2021,110,2021-11-13_11h06.19.844,tareaTDv3,2020.2.5,Win32,60,,,right,0.0,1.4336,0.0,60.0,60.0,85.0,1.0,25000.0,0.0,35000.0,150.0
,,,,,,,,,,,,,,,,,,,,,,,13/11/2021,110,2021-11-13_11h06.19.844,tareaTDv3,2020.2.5,Win32,60,,,right,1.0,3.0981,0.0,61.0,61.0,9.0,1.0,10000.0,0.0,151000.0,11.0
,,,,,,,,,,,,,,,,,,,,,,,13/11/2021,110,2021-11-13_11h06.19.844,tareaTDv3,2020.2.5,Win32,60,,,left,1.0,1.9021,0.0,62.0,62.0,64.0,1.0,25000.0,0.0,150000.0,4.0
,,,,,,,,,,,,,,,,,,,,,,,13/11/2021,110,2021-11-13_11h06.19.844,tareaTDv3,2020.2.5,Win32,60,,,right,0.0,4.2929,0.0,63.0,63.0,80.0,1.0,25000.0,0.0,35000.0,90.0
,,,,,,,,,,,,,,,,,,,,,,,13/11/2021,110,2021-11-13_11h06.19.844,tareaTDv3,2020.2.5,Win32,60,,,left,1.0,2.1658,0.0,64.0,64.0,24.0,1.0,10000.0,0.0,149000.0,89.0
,,,,,,,,,,,,,,,,,,,,,,,13/11/2021,110,2021-11-13_11h06.19.844,tareaTDv3,2020.2.5,Win32,60,,,left,1.0,2.1134,0.0,65.0,65.0,13.0,1.0,10000.0,0.0,111000.0,30.0
,,,,,,,,,,,,,,,,,,,,,,,13/11/2021,110,2021-11-13_11h06.19.844,tareaTDv3,2020.2.5,Win32,60,,,left,1.0,1.3688,0.0,66.0,66.0,58.0,1.0,5000.0,0.0,106000.0,152.0
,,,,,,,,,,,,,,,,,,,,,,,13/11/2021,110,2021-11-13_11h06.19.844,tareaTDv3,2020.2.5,Win32,60,,,left,1.0,6.4686,0.0,67.0,67.0,45.0,1.0,5000.0,0.0,15000.0,61.0
,,,,,,,,,,,,,,,,,,,,,,,13/11/2021,110,2021-11-13_11h06.19.844,tareaTDv3,2020.2.5,Win32,60,,,right,1.0,3.2045,0.0,68.0,68.0,18.0,1.0,10000.0,0.0,110000.0,60.0
,,,,,,,,,,,,,,,,,,,,,,,13/11/2021,110,2021-11-13_11h06.19.844,tareaTDv3,2020.2.5,Win32,60,,,left,1.0,1.6552,0.0,69.0,69.0,2.0,1.0,10000.0,0.0,61000.0,4.0
,,,,,,,,,,,,,,,,,,,,,,,13/11/2021,110,2021-11-13_11h06.19.844,tareaTDv3,2020.2.5,Win32,60,,,left,0.0,2.3597,0.0,70.0,70.0,20.0,1.0,10000.0,0.0,20000.0,90.0
,,,,,,,,,,,,,,,,,,,,,,,13/11/2021,110,2021-11-13_11h06.19.844,tareaTDv3,2020.2.5,Win32,60,,,left,1.0,0.8007,0.0,71.0,71.0,39.0,1.0,5000.0,0.0,149000.0,10.0
,,,,,,,,,,,,,,,,,,,,,,,13/11/2021,110,2021-11-13_11h06.19.844,tareaTDv3,2020.2.5,Win32,60,,,right,1.0,2.3676,0.0,72.0,72.0,23.0,1.0,10000.0,0.0,110000.0,90.0
,,,,,,,,,,,,,,,,,,,,,,,13/11/2021,110,2021-11-13_11h06.19.844,tareaTDv3,2020.2.5,Win32,60,,,right,1.0,1.8152,0.0,73.0,73.0,17.0,1.0,10000.0,0.0,60000.0,60.0
,,,,,,,,,,,,,,,,,,,,,,,13/11/2021,110,2021-11-13_11h06.19.844,tareaTDv3,2020.2.5,Win32,60,,,left,1.0,1.6841,0.0,74.0,74.0,66.0,1.0,25000.0,0.0,55000.0,11.0
,,,,,,,,,,,,,,,,,,,,,,,13/11/2021,110,2021-11-13_11h06.19.844,tareaTDv3,2020.2.5,Win32,60,,,right,1.0,0.4174,0.0,75.0,75.0,35.0,1.0,5000.0,0.0,15000.0,11.0
,,,,,,,,,,,,,,,,,,,,,,,13/11/2021,110,2021-11-13_11h06.19.844,tareaTDv3,2020.2.5,Win32,60,,,left,1.0,1.2509,0.0,76.0,76.0,1.0,1.0,10000.0,0.0,39000.0,6.0
,,,,,,,,,,,,,,,,,,,,,,,13/11/2021,110,2021-11-13_11h06.19.844,tareaTDv3,2020.2.5,Win32,60,,,right,1.0,0.8838,0.0,77.0,77.0,6.0,1.0,10000.0,0.0,40000.0,10.0
,,,,,,,,,,,,,,,,,,,,,,,13/11/2021,110,2021-11-13_11h06.19.844,tareaTDv3,2020.2.5,Win32,60,,,right,1.0,0.8513,0.0,78.0,78.0,38.0,1.0,5000.0,0.0,104000.0,10.0
,,,,,,,,,,,,,,,,,,,,,,,13/11/2021,110,2021-11-13_11h06.19.844,tareaTDv3,2020.2.5,Win32,60,,,right,0.0,2.6229,0.0,79.0,79.0,15.0,1.0,10000.0,0.0,20000.0,59.0
,,,,,,,,,,,,,,,,,,,,,,,13/11/2021,110,2021-11-13_11h06.19.844,tareaTDv3,2020.2.5,Win32,60,,,right,1.0,1.5179,0.0,80.0,80.0,16.0,1.0,10000.0,0.0,39000.0,59.0
,,,,,,,,,,,,,,,,,,,,,,,13/11/2021,110,2021-11-13_11h06.19.844,tareaTDv3,2020.2.5,Win32,60,,,left,0.0,3.3933,0.0,81.0,81.0,25.0,1.0,10000.0,0.0,10000.0,150.0
,,,,,,,,,,,,,,,,,,,,,,,13/11/2021,110,2021-11-13_11h06.19.844,tareaTDv3,2020.2.5,Win32,60,,,right,1.0,1.8847,0.0,82.0,82.0,8.0,1.0,10000.0,0.0,111000.0,10.0
,,,,,,,,,,,,,,,,,,,,,,,13/11/2021,110,2021-11-13_11h06.19.844,tareaTDv3,2020.2.5,Win32,60,,,right,1.0,3.7669,0.0,83.0,83.0,50.0,1.0,5000.0,0.0,15000.0,91.0
,,,,,,,,,,,,,,,,,,,,,,,13/11/2021,110,2021-11-13_11h06.19.844,tareaTDv3,2020.2.5,Win32,60,,,right,1.0,3.5686,0.0,84.0,84.0,14.0,1.0,10000.0,0.0,150000.0,30.0
,,,,,,,,,,,,,,,,,,,,,,,13/11/2021,110,2021-11-13_11h06.19.844,tareaTDv3,2020.2.5,Win32,60,,,left,1.0,1.4607,0.0,85.0,85.0,33.0,1.0,5000.0,0.0,104000.0,5.0
,,,,,,,,,,,,,,,,,,,,,,,13/11/2021,110,2021-11-13_11h06.19.844,tareaTDv3,2020.2.5,Win32,60,,,right,1.0,2.893,0.0,86.0,86.0,68.0,1.0,25000.0,0.0,125000.0,9.0
,,,,,,,,,,,,,,,,,,,,,,,13/11/2021,110,2021-11-13_11h06.19.844,tareaTDv3,2020.2.5,Win32,60,,,left,1.0,1.5676,0.0,87.0,87.0,41.0,1.0,5000.0,0.0,35000.0,31.0
,,,,,,,,,,,,,,,,,,,,,,,13/11/2021,110,2021-11-13_11h06.19.844,tareaTDv3,2020.2.5,Win32,60,,,left,1.0,9.5528,0.0,88.0,88.0,87.0,1.0,25000.0,0.0,75000.0,151.0
,,,,,,,,,,,,,,,,,,,,,,,13/11/2021,110,2021-11-13_11h06.19.844,tareaTDv3,2020.2.5,Win32,60,,,left,0.0,4.2932,0.0,89.0,89.0,70.0,1.0,25000.0,0.0,35000.0,30.0
