key1_keys,key1_rt,key2_keys,key2_rt,key2_2_keys,key2_2_rt,key2_3_keys,key2_3_rt,key3_keys,key3_rt,key4_keys,key4_rt,respP_keys,respP_corr,Practice_thisRepN,Practice_thisTrialN,Practice_thisN,Practice_thisIndex,Practice_ran,ssAmount,llAmount,llDelay,session,participant,date,expName,psychopyVersion,OS,frameRate,respP_rt,key5_keys,key5_rt,respT_keys,respT_corr,respT_rt,trials_thisRepN,trials_thisTrialN,trials_thisN,trials_thisIndex,trials_ran,ss_am,ss_del,ll_am,ll_del
space,6.00152,space,16.558775,space,30.525495,space,18.513995,right,19.6904,space,5.61448,,0.0,0.0,0.0,0.0,0.0,1.0,10000.0,109000.0,9.0,2,112,2020-11-13_09h49.59.925,tareaTDv3,2020.2.5,Win32,60,,,,,,,,,,,,,,,
,,,,,,,,,,,,right,0.0,0.0,1.0,1.0,2.0,1.0,10000.0,19000.0,89.0,2,112,2020-11-13_09h49.59.925,tareaTDv3,2020.2.5,Win32,60,16.868385,,,,,,,,,,,,,,
,,,,,,,,,,,,left,0.0,0.0,2.0,2.0,1.0,1.0,25000.0,35000.0,150.0,2,112,2020-11-13_09h49.59.925,tareaTDv3,2020.2.5,Win32,60,8.39932,,,,,,,,,,,,,,
,,,,,,,,,,,,,,,,,,,,,,2,112,2020-11-13_09h49.59.925,tareaTDv3,2020.2.5,Win32,60,,g,6.691525,left,1.0,7.75444,0.0,0.0,0.0,57.0,1.0,5000.0,0.0,55000.0,151.0
,,,,,,,,,,,,,,,,,,,,,,2,112,2020-11-13_09h49.59.925,tareaTDv3,2020.2.5,Win32,60,,,,right,1.0,4.7483,0.0,1.0,1.0,78.0,1.0,25000.0,0.0,125000.0,59.0
,,,,,,,,,,,,,,,,,,,,,,2,112,2020-11-13_09h49.59.925,tareaTDv3,2020.2.5,Win32,60,,,,left,0.0,4.311635,0.0,2.0,2.0,89.0,1.0,25000.0,0.0,150000.0,150.0
,,,,,,,,,,,,,,,,,,,,,,2,112,2020-11-13_09h49.59.925,tareaTDv3,2020.2.5,Win32,60,,,,right,1.0,2.47646,0.0,3.0,3.0,53.0,1.0,5000.0,0.0,104000.0,90.0
,,,,,,,,,,,,,,,,,,,,,,2,112,2020-11-13_09h49.59.925,tareaTDv3,2020.2.5,Win32,60,,,,left,0.0,3.682585,0.0,4.0,4.0,71.0,1.0,25000.0,0.0,55000.0,30.0
,,,,,,,,,,,,,,,,,,,,,,2,112,2020-11-13_09h49.59.925,tareaTDv3,2020.2.5,Win32,60,,,,right,1.0,10.78197,0.0,5.0,5.0,27.0,1.0,10000.0,0.0,61000.0,150.0
,,,,,,,,,,,,,,,,,,,,,,2,112,2020-11-13_09h49.59.925,tareaTDv3,2020.2.5,Win32,60,,,,left,0.0,10.661795,0.0,6.0,6.0,22.0,1.0,10000.0,0.0,61000.0,89.0
,,,,,,,,,,,,,,,,,,,,,,2,112,2020-11-13_09h49.59.925,tareaTDv3,2020.2.5,Win32,60,,,,left,1.0,4.64844,0.0,7.0,7.0,28.0,1.0,10000.0,0.0,109000.0,149.0
,,,,,,,,,,,,,,,,,,,,,,2,112,2020-11-13_09h49.59.925,tareaTDv3,2020.2.5,Win32,60,,,,left,0.0,8.014025,0.0,8.0,8.0,86.0,1.0,25000.0,0.0,55000.0,151.0
,,,,,,,,,,,,,,,,,,,,,,2,112,2020-11-13_09h49.59.925,tareaTDv3,2020.2.5,Win32,60,,,,left,1.0,4.556115,0.0,9.0,9.0,77.0,1.0,25000.0,0.0,75000.0,59.0
,,,,,,,,,,,,,,,,,,,,,,2,112,2020-11-13_09h49.59.925,tareaTDv3,2020.2.5,Win32,60,,,,,0.0,,0.0,10.0,10.0,46.0,1.0,5000.0,0.0,36000.0,61.0
,,,,,,,,,,,,,,,,,,,,,,2,112,2020-11-13_09h49.59.925,tareaTDv3,2020.2.5,Win32,60,,,,left,1.0,3.53465,0.0,11.0,11.0,31.0,1.0,5000.0,0.0,35000.0,6.0
,,,,,,,,,,,,,,,,,,,,,,2,112,2020-11-13_09h49.59.925,tareaTDv3,2020.2.5,Win32,60,,,,right,0.0,2.550565,0.0,12.0,12.0,70.0,1.0,25000.0,0.0,35000.0,30.0
,,,,,,,,,,,,,,,,,,,,,,2,112,2020-11-13_09h49.59.925,tareaTDv3,2020.2.5,Win32,60,,,,left,1.0,3.55298,0.0,13.0,13.0,33.0,1.0,5000.0,0.0,104000.0,5.0
,,,,,,,,,,,,,,,,,,,,,,2,112,2020-11-13_09h49.59.925,tareaTDv3,2020.2.5,Win32,60,,,,left,0.0,1.502435,0.0,14.0,14.0,85.0,1.0,25000.0,0.0,35000.0,150.0
,,,,,,,,,,,,,,,,,,,,,,2,112,2020-11-13_09h49.59.925,tareaTDv3,2020.2.5,Win32,60,,,,left,0.0,1.40744,0.0,15.0,15.0,15.0,1.0,10000.0,0.0,20000.0,59.0
,,,,,,,,,,,,,,,,,,,,,,2,112,2020-11-13_09h49.59.925,tareaTDv3,2020.2.5,Win32,60,,,,right,0.0,8.283035,0.0,16.0,16.0,51.0,1.0,5000.0,0.0,35000.0,89.0
,,,,,,,,,,,,,,,,,,,,,,2,112,2020-11-13_09h49.59.925,tareaTDv3,2020.2.5,Win32,60,,,,left,1.0,11.733535,0.0,17.0,17.0,36.0,1.0,5000.0,0.0,36000.0,9.0
,,,,,,,,,,,,,,,,,,,,,,2,112,2020-11-13_09h49.59.925,tareaTDv3,2020.2.5,Win32,60,,,,left,1.0,2.4499,0.0,18.0,18.0,59.0,1.0,5000.0,0.0,151000.0,150.0
,,,,,,,,,,,,,,,,,,,,,,2,112,2020-11-13_09h49.59.925,tareaTDv3,2020.2.5,Win32,60,,,,left,1.0,9.08506,0.0,19.0,19.0,2.0,1.0,10000.0,0.0,61000.0,4.0
,,,,,,,,,,,,,,,,,,,,,,2,112,2020-11-13_09h49.59.925,tareaTDv3,2020.2.5,Win32,60,,,,right,0.0,16.218455,0.0,20.0,20.0,80.0,1.0,25000.0,0.0,35000.0,90.0
,,,,,,,,,,,,,,,,,,,,,,2,112,2020-11-13_09h49.59.925,tareaTDv3,2020.2.5,Win32,60,,,,right,1.0,1.321055,0.0,21.0,21.0,48.0,1.0,5000.0,0.0,105000.0,60.0
,,,,,,,,,,,,,,,,,,,,,,2,112,2020-11-13_09h49.59.925,tareaTDv3,2020.2.5,Win32,60,,,,left,1.0,5.081805,0.0,22.0,22.0,11.0,1.0,10000.0,0.0,39000.0,29.0
,,,,,,,,,,,,,,,,,,,,,,2,112,2020-11-13_09h49.59.925,tareaTDv3,2020.2.5,Win32,60,,,,right,1.0,1.175035,0.0,23.0,23.0,38.0,1.0,5000.0,0.0,104000.0,10.0
,,,,,,,,,,,,,,,,,,,,,,2,112,2020-11-13_09h49.59.925,tareaTDv3,2020.2.5,Win32,60,,,,left,1.0,4.22106,0.0,24.0,24.0,60.0,1.0,25000.0,0.0,35000.0,5.0
,,,,,,,,,,,,,,,,,,,,,,2,112,2020-11-13_09h49.59.925,tareaTDv3,2020.2.5,Win32,60,,,,left,1.0,6.24777,0.0,25.0,25.0,8.0,1.0,10000.0,0.0,111000.0,10.0
,,,,,,,,,,,,,,,,,,,,,,2,112,2020-11-13_09h49.59.925,tareaTDv3,2020.2.5,Win32,60,,,,left,1.0,1.52485,0.0,26.0,26.0,79.0,1.0,25000.0,0.0,150000.0,61.0
,,,,,,,,,,,,,,,,,,,,,,2,112,2020-11-13_09h49.59.925,tareaTDv3,2020.2.5,Win32,60,,,,right,0.0,16.564465,0.0,27.0,27.0,40.0,1.0,5000.0,0.0,14000.0,31.0
,,,,,,,,,,,,,,,,,,,,,,2,112,2020-11-13_09h49.59.925,tareaTDv3,2020.2.5,Win32,60,,,,right,1.0,2.23313,0.0,28.0,28.0,62.0,1.0,25000.0,0.0,75000.0,5.0
,,,,,,,,,,,,,,,,,,,,,,2,112,2020-11-13_09h49.59.925,tareaTDv3,2020.2.5,Win32,60,,,,right,1.0,2.03274,0.0,29.0,29.0,14.0,1.0,10000.0,0.0,150000.0,30.0
,,,,,,,,,,,,,,,,,,,,,,2,112,2020-11-13_09h49.59.925,tareaTDv3,2020.2.5,Win32,60,,,,right,1.0,2.58316,0.0,30.0,30.0,19.0,1.0,10000.0,0.0,149000.0,61.0
,,,,,,,,,,,,,,,,,,,,,,2,112,2020-11-13_09h49.59.925,tareaTDv3,2020.2.5,Win32,60,,,,left,1.0,4.76705,0.0,31.0,31.0,3.0,1.0,10000.0,0.0,109000.0,5.0
,,,,,,,,,,,,,,,,,,,,,,2,112,2020-11-13_09h49.59.925,tareaTDv3,2020.2.5,Win32,60,,,,right,1.0,1.57076,0.0,32.0,32.0,32.0,1.0,5000.0,0.0,54000.0,5.0
,,,,,,,,,,,,,,,,,,,,,,2,112,2020-11-13_09h49.59.925,tareaTDv3,2020.2.5,Win32,60,,,,left,1.0,1.018105,0.0,33.0,33.0,43.0,1.0,5000.0,0.0,106000.0,29.0
,,,,,,,,,,,,,,,,,,,,,,2,112,2020-11-13_09h49.59.925,tareaTDv3,2020.2.5,Win32,60,,,,right,0.0,2.02826,0.0,34.0,34.0,12.0,1.0,10000.0,0.0,60000.0,29.0
,,,,,,,,,,,,,,,,,,,,,,2,112,2020-11-13_09h49.59.925,tareaTDv3,2020.2.5,Win32,60,,,,right,1.0,1.06704,0.0,35.0,35.0,72.0,1.0,25000.0,0.0,75000.0,31.0
,,,,,,,,,,,,,,,,,,,,,,2,112,2020-11-13_09h49.59.925,tareaTDv3,2020.2.5,Win32,60,,,,right,1.0,2.79949,0.0,36.0,36.0,34.0,1.0,5000.0,0.0,151000.0,4.0
,,,,,,,,,,,,,,,,,,,,,,2,112,2020-11-13_09h49.59.925,tareaTDv3,2020.2.5,Win32,60,,,,right,0.0,5.880935,0.0,37.0,37.0,67.0,1.0,25000.0,0.0,75000.0,10.0
,,,,,,,,,,,,,,,,,,,,,,2,112,2020-11-13_09h49.59.925,tareaTDv3,2020.2.5,Win32,60,,,,left,0.0,1.6395,0.0,38.0,38.0,81.0,1.0,25000.0,0.0,55000.0,90.0
,,,,,,,,,,,,,,,,,,,,,,2,112,2020-11-13_09h49.59.925,tareaTDv3,2020.2.5,Win32,60,,,,left,1.0,5.048875,0.0,39.0,39.0,6.0,1.0,10000.0,0.0,40000.0,10.0
,,,,,,,,,,,,,,,,,,,,,,2,112,2020-11-13_09h49.59.925,tareaTDv3,2020.2.5,Win32,60,,,,right,1.0,11.204485,0.0,40.0,40.0,64.0,1.0,25000.0,0.0,150000.0,4.0
,,,,,,,,,,,,,,,,,,,,,,2,112,2020-11-13_09h49.59.925,tareaTDv3,2020.2.5,Win32,60,,,,right,0.0,2.157205,0.0,41.0,41.0,25.0,1.0,10000.0,0.0,10000.0,150.0
,,,,,,,,,,,,,,,,,,,,,,2,112,2020-11-13_09h49.59.925,tareaTDv3,2020.2.5,Win32,60,,,,right,1.0,3.886525,0.0,42.0,42.0,9.0,1.0,10000.0,0.0,151000.0,11.0
,,,,,,,,,,,,,,,,,,,,,,2,112,2020-11-13_09h49.59.925,tareaTDv3,2020.2.5,Win32,60,,,,right,0.0,7.475865,0.0,43.0,43.0,29.0,1.0,10000.0,0.0,151000.0,151.0
,,,,,,,,,,,,,,,,,,,,,,2,112,2020-11-13_09h49.59.925,tareaTDv3,2020.2.5,Win32,60,,,,right,0.0,2.4334,0.0,44.0,44.0,66.0,1.0,25000.0,0.0,55000.0,11.0
,,,,,,,,,,,,,,,,,,,,,,2,112,2020-11-13_09h49.59.925,tareaTDv3,2020.2.5,Win32,60,,,,left,0.0,2.721795,0.0,45.0,45.0,52.0,1.0,5000.0,0.0,56000.0,89.0
,,,,,,,,,,,,,,,,,,,,,,2,112,2020-11-13_09h49.59.925,tareaTDv3,2020.2.5,Win32,60,,,,right,0.0,5.20252,0.0,46.0,46.0,5.0,1.0,10000.0,0.0,19000.0,11.0
,,,,,,,,,,,,,,,,,,,,,,2,112,2020-11-13_09h49.59.925,tareaTDv3,2020.2.5,Win32,60,,,,left,1.0,4.279185,0.0,47.0,47.0,44.0,1.0,5000.0,0.0,150000.0,30.0
,,,,,,,,,,,,,,,,,,,,,,2,112,2020-11-13_09h49.59.925,tareaTDv3,2020.2.5,Win32,60,,,,right,1.0,1.561015,0.0,48.0,48.0,39.0,1.0,5000.0,0.0,149000.0,10.0
,,,,,,,,,,,,,,,,,,,,,,2,112,2020-11-13_09h49.59.925,tareaTDv3,2020.2.5,Win32,60,,,,left,0.0,1.084025,0.0,49.0,49.0,21.0,1.0,10000.0,0.0,40000.0,91.0
,,,,,,,,,,,,,,,,,,,,,,2,112,2020-11-13_09h49.59.925,tareaTDv3,2020.2.5,Win32,60,,,,right,0.0,3.39955,0.0,50.0,50.0,42.0,1.0,5000.0,0.0,56000.0,29.0
,,,,,,,,,,,,,,,,,,,,,,2,112,2020-11-13_09h49.59.925,tareaTDv3,2020.2.5,Win32,60,,,,right,0.0,1.086695,0.0,51.0,51.0,16.0,1.0,10000.0,0.0,39000.0,59.0
,,,,,,,,,,,,,,,,,,,,,,2,112,2020-11-13_09h49.59.925,tareaTDv3,2020.2.5,Win32,60,,,,right,1.0,2.23961,0.0,52.0,52.0,63.0,1.0,25000.0,0.0,125000.0,4.0
,,,,,,,,,,,,,,,,,,,,,,2,112,2020-11-13_09h49.59.925,tareaTDv3,2020.2.5,Win32,60,,,,right,0.0,3.118505,0.0,53.0,53.0,54.0,1.0,5000.0,0.0,150000.0,90.0
,,,,,,,,,,,,,,,,,,,,,,2,112,2020-11-13_09h49.59.925,tareaTDv3,2020.2.5,Win32,60,,,,left,0.0,3.150955,0.0,54.0,54.0,75.0,1.0,25000.0,0.0,35000.0,60.0
,,,,,,,,,,,,,,,,,,,,,,2,112,2020-11-13_09h49.59.925,tareaTDv3,2020.2.5,Win32,60,,,,left,0.0,4.720855,0.0,55.0,55.0,84.0,1.0,25000.0,0.0,150000.0,89.0
,,,,,,,,,,,,,,,,,,,,,,2,112,2020-11-13_09h49.59.925,tareaTDv3,2020.2.5,Win32,60,,,,left,0.0,10.54798,0.0,56.0,56.0,47.0,1.0,5000.0,0.0,56000.0,60.0
,,,,,,,,,,,,,,,,,,,,,,2,112,2020-11-13_09h49.59.925,tareaTDv3,2020.2.5,Win32,60,,,,left,1.0,1.725285,0.0,57.0,57.0,37.0,1.0,5000.0,0.0,56000.0,9.0
,,,,,,,,,,,,,,,,,,,,,,2,112,2020-11-13_09h49.59.925,tareaTDv3,2020.2.5,Win32,60,,,,right,0.0,6.70715,0.0,58.0,58.0,35.0,1.0,5000.0,0.0,15000.0,11.0
,,,,,,,,,,,,,,,,,,,,,,2,112,2020-11-13_09h49.59.925,tareaTDv3,2020.2.5,Win32,60,,,,right,0.0,2.367055,0.0,59.0,59.0,24.0,1.0,10000.0,0.0,149000.0,89.0
,,,,,,,,,,,,,,,,,,,,,,2,112,2020-11-13_09h49.59.925,tareaTDv3,2020.2.5,Win32,60,,,,right,0.0,6.281205,0.0,60.0,60.0,41.0,1.0,5000.0,0.0,35000.0,31.0
,,,,,,,,,,,,,,,,,,,,,,2,112,2020-11-13_09h49.59.925,tareaTDv3,2020.2.5,Win32,60,,,,left,1.0,0.926285,0.0,61.0,61.0,73.0,1.0,25000.0,0.0,125000.0,31.0
,,,,,,,,,,,,,,,,,,,,,,2,112,2020-11-13_09h49.59.925,tareaTDv3,2020.2.5,Win32,60,,,,right,1.0,1.28442,0.0,62.0,62.0,7.0,1.0,10000.0,0.0,59000.0,9.0
,,,,,,,,,,,,,,,,,,,,,,2,112,2020-11-13_09h49.59.925,tareaTDv3,2020.2.5,Win32,60,,,,left,0.0,1.009955,0.0,63.0,63.0,26.0,1.0,10000.0,0.0,39000.0,150.0
,,,,,,,,,,,,,,,,,,,,,,2,112,2020-11-13_09h49.59.925,tareaTDv3,2020.2.5,Win32,60,,,,right,1.0,1.594625,0.0,64.0,64.0,61.0,1.0,25000.0,0.0,55000.0,6.0
,,,,,,,,,,,,,,,,,,,,,,2,112,2020-11-13_09h49.59.925,tareaTDv3,2020.2.5,Win32,60,,,,right,0.0,2.101665,0.0,65.0,65.0,23.0,1.0,10000.0,0.0,110000.0,90.0
,,,,,,,,,,,,,,,,,,,,,,2,112,2020-11-13_09h49.59.925,tareaTDv3,2020.2.5,Win32,60,,,,left,0.0,0.933955,0.0,66.0,66.0,10.0,1.0,10000.0,0.0,21000.0,31.0
,,,,,,,,,,,,,,,,,,,,,,2,112,2020-11-13_09h49.59.925,tareaTDv3,2020.2.5,Win32,60,,,,left,0.0,2.940245,0.0,67.0,67.0,74.0,1.0,25000.0,0.0,150000.0,29.0
,,,,,,,,,,,,,,,,,,,,,,2,112,2020-11-13_09h49.59.925,tareaTDv3,2020.2.5,Win32,60,,,,left,1.0,2.258805,0.0,68.0,68.0,13.0,1.0,10000.0,0.0,111000.0,30.0
,,,,,,,,,,,,,,,,,,,,,,2,112,2020-11-13_09h49.59.925,tareaTDv3,2020.2.5,Win32,60,,,,left,1.0,1.05711,0.0,69.0,69.0,1.0,1.0,10000.0,0.0,39000.0,6.0
,,,,,,,,,,,,,,,,,,,,,,2,112,2020-11-13_09h49.59.925,tareaTDv3,2020.2.5,Win32,60,,,,left,0.0,10.628895,0.0,70.0,70.0,82.0,1.0,25000.0,0.0,75000.0,90.0
,,,,,,,,,,,,,,,,,,,,,,2,112,2020-11-13_09h49.59.925,tareaTDv3,2020.2.5,Win32,60,,,,left,1.0,0.594855,0.0,71.0,71.0,30.0,1.0,5000.0,0.0,16000.0,4.0
,,,,,,,,,,,,,,,,,,,,,,2,112,2020-11-13_09h49.59.925,tareaTDv3,2020.2.5,Win32,60,,,,right,1.0,1.611205,0.0,72.0,72.0,68.0,1.0,25000.0,0.0,125000.0,9.0
,,,,,,,,,,,,,,,,,,,,,,2,112,2020-11-13_09h49.59.925,tareaTDv3,2020.2.5,Win32,60,,,,left,0.0,1.30224,0.0,73.0,73.0,20.0,1.0,10000.0,0.0,20000.0,90.0
,,,,,,,,,,,,,,,,,,,,,,2,112,2020-11-13_09h49.59.925,tareaTDv3,2020.2.5,Win32,60,,,,right,0.0,3.21853,0.0,74.0,74.0,0.0,1.0,10000.0,0.0,20000.0,5.0
,,,,,,,,,,,,,,,,,,,,,,2,112,2020-11-13_09h49.59.925,tareaTDv3,2020.2.5,Win32,60,,,,right,0.0,3.074245,0.0,75.0,75.0,50.0,1.0,5000.0,0.0,15000.0,91.0
,,,,,,,,,,,,,,,,,,,,,,2,112,2020-11-13_09h49.59.925,tareaTDv3,2020.2.5,Win32,60,,,,right,1.0,1.50439,0.0,76.0,76.0,4.0,1.0,10000.0,0.0,150000.0,5.0
,,,,,,,,,,,,,,,,,,,,,,2,112,2020-11-13_09h49.59.925,tareaTDv3,2020.2.5,Win32,60,,,,right,0.0,4.51509,0.0,77.0,77.0,88.0,1.0,25000.0,0.0,125000.0,149.0
,,,,,,,,,,,,,,,,,,,,,,2,112,2020-11-13_09h49.59.925,tareaTDv3,2020.2.5,Win32,60,,,,right,0.0,3.67918,0.0,78.0,78.0,18.0,1.0,10000.0,0.0,110000.0,60.0
,,,,,,,,,,,,,,,,,,,,,,2,112,2020-11-13_09h49.59.925,tareaTDv3,2020.2.5,Win32,60,,,,left,1.0,1.254,0.0,79.0,79.0,69.0,1.0,25000.0,0.0,150000.0,9.0
,,,,,,,,,,,,,,,,,,,,,,2,112,2020-11-13_09h49.59.925,tareaTDv3,2020.2.5,Win32,60,,,,right,0.0,3.2868,0.0,80.0,80.0,58.0,1.0,5000.0,0.0,106000.0,152.0
,,,,,,,,,,,,,,,,,,,,,,2,112,2020-11-13_09h49.59.925,tareaTDv3,2020.2.5,Win32,60,,,,right,0.0,1.62367,0.0,81.0,81.0,87.0,1.0,25000.0,0.0,75000.0,151.0
,,,,,,,,,,,,,,,,,,,,,,2,112,2020-11-13_09h49.59.925,tareaTDv3,2020.2.5,Win32,60,,,,right,0.0,5.08342,0.0,82.0,82.0,17.0,1.0,10000.0,0.0,60000.0,60.0
,,,,,,,,,,,,,,,,,,,,,,2,112,2020-11-13_09h49.59.925,tareaTDv3,2020.2.5,Win32,60,,,,right,0.0,5.4481,0.0,83.0,83.0,55.0,1.0,5000.0,0.0,14000.0,149.0
,,,,,,,,,,,,,,,,,,,,,,2,112,2020-11-13_09h49.59.925,tareaTDv3,2020.2.5,Win32,60,,,,right,0.0,1.807385,0.0,84.0,84.0,83.0,1.0,25000.0,0.0,125000.0,89.0
,,,,,,,,,,,,,,,,,,,,,,2,112,2020-11-13_09h49.59.925,tareaTDv3,2020.2.5,Win32,60,,,,right,0.0,2.809115,0.0,85.0,85.0,65.0,1.0,25000.0,0.0,35000.0,11.0
,,,,,,,,,,,,,,,,,,,,,,2,112,2020-11-13_09h49.59.925,tareaTDv3,2020.2.5,Win32,60,,,,right,1.0,2.35201,0.0,86.0,86.0,49.0,1.0,5000.0,0.0,149000.0,59.0
,,,,,,,,,,,,,,,,,,,,,,2,112,2020-11-13_09h49.59.925,tareaTDv3,2020.2.5,Win32,60,,,,left,0.0,2.0337,0.0,87.0,87.0,45.0,1.0,5000.0,0.0,15000.0,61.0
,,,,,,,,,,,,,,,,,,,,,,2,112,2020-11-13_09h49.59.925,tareaTDv3,2020.2.5,Win32,60,,,,left,0.0,2.77304,0.0,88.0,88.0,56.0,1.0,5000.0,0.0,35000.0,150.0
,,,,,,,,,,,,,,,,,,,,,,2,112,2020-11-13_09h49.59.925,tareaTDv3,2020.2.5,Win32,60,,,,left,0.0,6.85595,0.0,89.0,89.0,76.0,1.0,25000.0,0.0,55000.0,60.0
