key1_keys,key1_rt,key2_keys,key2_rt,key2_2_keys,key2_2_rt,key2_3_keys,key2_3_rt,key3_keys,key3_rt,key4_keys,key4_rt,respP_keys,respP_corr,respP_rt,Practice_thisRepN,Practice_thisTrialN,Practice_thisN,Practice_thisIndex,Practice_ran,ssAmount,llAmount,llDelay,session,participant,date,expName,psychopyVersion,OS,frameRate,key5_keys,key5_rt,respT_keys,respT_corr,respT_rt,trials_thisRepN,trials_thisTrialN,trials_thisN,trials_thisIndex,trials_ran,ss_am,ss_del,ll_am,ll_del
space,4.2021,space,21.0775,space,15.8328,space,4.3232,left,14.4819,space,3.6351,right,0.0,8.0533,0.0,0.0,0.0,2.0,1.0,10000.0,19000.0,89.0,13/05/0022,116,2022-05-13_09h39.59.068,tareaTDv3,2020.2.5,Win32,60,,,,,,,,,,,,,,
,,,,,,,,,,,,left,1.0,5.5156,0.0,1.0,1.0,0.0,1.0,10000.0,109000.0,9.0,13/05/0022,116,2022-05-13_09h39.59.068,tareaTDv3,2020.2.5,Win32,60,,,,,,,,,,,,,,
,,,,,,,,,,,,right,0.0,5.9198,0.0,2.0,2.0,1.0,1.0,25000.0,35000.0,150.0,13/05/0022,116,2022-05-13_09h39.59.068,tareaTDv3,2020.2.5,Win32,60,,,,,,,,,,,,,,
,,,,,,,,,,,,,,,,,,,,,,,13/05/0022,116,2022-05-13_09h39.59.068,tareaTDv3,2020.2.5,Win32,60,g,4.1202,left,1.0,8.9383,0.0,0.0,0.0,18.0,1.0,10000.0,0.0,110000.0,60.0
,,,,,,,,,,,,,,,,,,,,,,,13/05/0022,116,2022-05-13_09h39.59.068,tareaTDv3,2020.2.5,Win32,60,,,right,0.0,8.2171,0.0,1.0,1.0,87.0,1.0,25000.0,0.0,75000.0,151.0
,,,,,,,,,,,,,,,,,,,,,,,13/05/0022,116,2022-05-13_09h39.59.068,tareaTDv3,2020.2.5,Win32,60,,,right,1.0,6.2156,0.0,2.0,2.0,58.0,1.0,5000.0,0.0,106000.0,152.0
,,,,,,,,,,,,,,,,,,,,,,,13/05/0022,116,2022-05-13_09h39.59.068,tareaTDv3,2020.2.5,Win32,60,,,left,1.0,5.3658,0.0,3.0,3.0,7.0,1.0,10000.0,0.0,59000.0,9.0
,,,,,,,,,,,,,,,,,,,,,,,13/05/0022,116,2022-05-13_09h39.59.068,tareaTDv3,2020.2.5,Win32,60,,,left,1.0,5.4823,0.0,4.0,4.0,68.0,1.0,25000.0,0.0,125000.0,9.0
,,,,,,,,,,,,,,,,,,,,,,,13/05/0022,116,2022-05-13_09h39.59.068,tareaTDv3,2020.2.5,Win32,60,,,left,0.0,8.2393,0.0,5.0,5.0,80.0,1.0,25000.0,0.0,35000.0,90.0
,,,,,,,,,,,,,,,,,,,,,,,13/05/0022,116,2022-05-13_09h39.59.068,tareaTDv3,2020.2.5,Win32,60,,,left,1.0,8.4874,0.0,6.0,6.0,12.0,1.0,10000.0,0.0,60000.0,29.0
,,,,,,,,,,,,,,,,,,,,,,,13/05/0022,116,2022-05-13_09h39.59.068,tareaTDv3,2020.2.5,Win32,60,,,right,1.0,4.2858,0.0,7.0,7.0,48.0,1.0,5000.0,0.0,105000.0,60.0
,,,,,,,,,,,,,,,,,,,,,,,13/05/0022,116,2022-05-13_09h39.59.068,tareaTDv3,2020.2.5,Win32,60,,,right,1.0,5.1319,0.0,8.0,8.0,2.0,1.0,10000.0,0.0,61000.0,4.0
,,,,,,,,,,,,,,,,,,,,,,,13/05/0022,116,2022-05-13_09h39.59.068,tareaTDv3,2020.2.5,Win32,60,,,right,1.0,9.6244,0.0,9.0,9.0,52.0,1.0,5000.0,0.0,56000.0,89.0
,,,,,,,,,,,,,,,,,,,,,,,13/05/0022,116,2022-05-13_09h39.59.068,tareaTDv3,2020.2.5,Win32,60,,,left,0.0,7.652,0.0,10.0,10.0,65.0,1.0,25000.0,0.0,35000.0,11.0
,,,,,,,,,,,,,,,,,,,,,,,13/05/0022,116,2022-05-13_09h39.59.068,tareaTDv3,2020.2.5,Win32,60,,,right,1.0,3.8583,0.0,11.0,11.0,37.0,1.0,5000.0,0.0,56000.0,9.0
,,,,,,,,,,,,,,,,,,,,,,,13/05/0022,116,2022-05-13_09h39.59.068,tareaTDv3,2020.2.5,Win32,60,,,left,1.0,11.2687,0.0,12.0,12.0,82.0,1.0,25000.0,0.0,75000.0,90.0
,,,,,,,,,,,,,,,,,,,,,,,13/05/0022,116,2022-05-13_09h39.59.068,tareaTDv3,2020.2.5,Win32,60,,,left,0.0,2.1725,0.0,13.0,13.0,15.0,1.0,10000.0,0.0,20000.0,59.0
,,,,,,,,,,,,,,,,,,,,,,,13/05/0022,116,2022-05-13_09h39.59.068,tareaTDv3,2020.2.5,Win32,60,,,left,1.0,2.8833,0.0,14.0,14.0,38.0,1.0,5000.0,0.0,104000.0,10.0
,,,,,,,,,,,,,,,,,,,,,,,13/05/0022,116,2022-05-13_09h39.59.068,tareaTDv3,2020.2.5,Win32,60,,,right,1.0,2.4781,0.0,15.0,15.0,32.0,1.0,5000.0,0.0,54000.0,5.0
,,,,,,,,,,,,,,,,,,,,,,,13/05/0022,116,2022-05-13_09h39.59.068,tareaTDv3,2020.2.5,Win32,60,,,left,0.0,5.9372,0.0,16.0,16.0,10.0,1.0,10000.0,0.0,21000.0,31.0
,,,,,,,,,,,,,,,,,,,,,,,13/05/0022,116,2022-05-13_09h39.59.068,tareaTDv3,2020.2.5,Win32,60,,,left,1.0,3.3996,0.0,17.0,17.0,14.0,1.0,10000.0,0.0,150000.0,30.0
,,,,,,,,,,,,,,,,,,,,,,,13/05/0022,116,2022-05-13_09h39.59.068,tareaTDv3,2020.2.5,Win32,60,,,left,0.0,3.5666,0.0,18.0,18.0,70.0,1.0,25000.0,0.0,35000.0,30.0
,,,,,,,,,,,,,,,,,,,,,,,13/05/0022,116,2022-05-13_09h39.59.068,tareaTDv3,2020.2.5,Win32,60,,,right,0.0,3.8727,0.0,19.0,19.0,86.0,1.0,25000.0,0.0,55000.0,151.0
,,,,,,,,,,,,,,,,,,,,,,,13/05/0022,116,2022-05-13_09h39.59.068,tareaTDv3,2020.2.5,Win32,60,,,right,1.0,7.7885,0.0,20.0,20.0,28.0,1.0,10000.0,0.0,109000.0,149.0
,,,,,,,,,,,,,,,,,,,,,,,13/05/0022,116,2022-05-13_09h39.59.068,tareaTDv3,2020.2.5,Win32,60,,,left,1.0,3.1494,0.0,21.0,21.0,9.0,1.0,10000.0,0.0,151000.0,11.0
,,,,,,,,,,,,,,,,,,,,,,,13/05/0022,116,2022-05-13_09h39.59.068,tareaTDv3,2020.2.5,Win32,60,,,left,1.0,3.7916,0.0,22.0,22.0,43.0,1.0,5000.0,0.0,106000.0,29.0
,,,,,,,,,,,,,,,,,,,,,,,13/05/0022,116,2022-05-13_09h39.59.068,tareaTDv3,2020.2.5,Win32,60,,,left,1.0,2.4,0.0,23.0,23.0,49.0,1.0,5000.0,0.0,149000.0,59.0
,,,,,,,,,,,,,,,,,,,,,,,13/05/0022,116,2022-05-13_09h39.59.068,tareaTDv3,2020.2.5,Win32,60,,,left,1.0,3.8826,0.0,24.0,24.0,47.0,1.0,5000.0,0.0,56000.0,60.0
,,,,,,,,,,,,,,,,,,,,,,,13/05/0022,116,2022-05-13_09h39.59.068,tareaTDv3,2020.2.5,Win32,60,,,left,1.0,2.8331,0.0,25.0,25.0,63.0,1.0,25000.0,0.0,125000.0,4.0
,,,,,,,,,,,,,,,,,,,,,,,13/05/0022,116,2022-05-13_09h39.59.068,tareaTDv3,2020.2.5,Win32,60,,,left,0.0,4.401,0.0,26.0,26.0,56.0,1.0,5000.0,0.0,35000.0,150.0
,,,,,,,,,,,,,,,,,,,,,,,13/05/0022,116,2022-05-13_09h39.59.068,tareaTDv3,2020.2.5,Win32,60,,,right,1.0,1.5451,0.0,27.0,27.0,4.0,1.0,10000.0,0.0,150000.0,5.0
,,,,,,,,,,,,,,,,,,,,,,,13/05/0022,116,2022-05-13_09h39.59.068,tareaTDv3,2020.2.5,Win32,60,,,right,1.0,1.168,0.0,28.0,28.0,39.0,1.0,5000.0,0.0,149000.0,10.0
,,,,,,,,,,,,,,,,,,,,,,,13/05/0022,116,2022-05-13_09h39.59.068,tareaTDv3,2020.2.5,Win32,60,,,left,1.0,7.6895,0.0,29.0,29.0,27.0,1.0,10000.0,0.0,61000.0,150.0
,,,,,,,,,,,,,,,,,,,,,,,13/05/0022,116,2022-05-13_09h39.59.068,tareaTDv3,2020.2.5,Win32,60,,,right,1.0,1.4838,0.0,30.0,30.0,78.0,1.0,25000.0,0.0,125000.0,59.0
,,,,,,,,,,,,,,,,,,,,,,,13/05/0022,116,2022-05-13_09h39.59.068,tareaTDv3,2020.2.5,Win32,60,,,left,1.0,2.3612,0.0,31.0,31.0,36.0,1.0,5000.0,0.0,36000.0,9.0
,,,,,,,,,,,,,,,,,,,,,,,13/05/0022,116,2022-05-13_09h39.59.068,tareaTDv3,2020.2.5,Win32,60,,,left,0.0,3.7825,0.0,32.0,32.0,21.0,1.0,10000.0,0.0,40000.0,91.0
,,,,,,,,,,,,,,,,,,,,,,,13/05/0022,116,2022-05-13_09h39.59.068,tareaTDv3,2020.2.5,Win32,60,,,right,1.0,4.566,0.0,33.0,33.0,79.0,1.0,25000.0,0.0,150000.0,61.0
,,,,,,,,,,,,,,,,,,,,,,,13/05/0022,116,2022-05-13_09h39.59.068,tareaTDv3,2020.2.5,Win32,60,,,left,1.0,1.1936,0.0,34.0,34.0,33.0,1.0,5000.0,0.0,104000.0,5.0
,,,,,,,,,,,,,,,,,,,,,,,13/05/0022,116,2022-05-13_09h39.59.068,tareaTDv3,2020.2.5,Win32,60,,,left,1.0,7.0484,0.0,35.0,35.0,17.0,1.0,10000.0,0.0,60000.0,60.0
,,,,,,,,,,,,,,,,,,,,,,,13/05/0022,116,2022-05-13_09h39.59.068,tareaTDv3,2020.2.5,Win32,60,,,right,0.0,3.2325,0.0,36.0,36.0,51.0,1.0,5000.0,0.0,35000.0,89.0
,,,,,,,,,,,,,,,,,,,,,,,13/05/0022,116,2022-05-13_09h39.59.068,tareaTDv3,2020.2.5,Win32,60,,,right,1.0,1.4035,0.0,37.0,37.0,69.0,1.0,25000.0,0.0,150000.0,9.0
,,,,,,,,,,,,,,,,,,,,,,,13/05/0022,116,2022-05-13_09h39.59.068,tareaTDv3,2020.2.5,Win32,60,,,left,1.0,3.1084,0.0,38.0,38.0,3.0,1.0,10000.0,0.0,109000.0,5.0
,,,,,,,,,,,,,,,,,,,,,,,13/05/0022,116,2022-05-13_09h39.59.068,tareaTDv3,2020.2.5,Win32,60,,,left,0.0,3.8174,0.0,39.0,39.0,75.0,1.0,25000.0,0.0,35000.0,60.0
,,,,,,,,,,,,,,,,,,,,,,,13/05/0022,116,2022-05-13_09h39.59.068,tareaTDv3,2020.2.5,Win32,60,,,left,1.0,5.9597,0.0,40.0,40.0,22.0,1.0,10000.0,0.0,61000.0,89.0
,,,,,,,,,,,,,,,,,,,,,,,13/05/0022,116,2022-05-13_09h39.59.068,tareaTDv3,2020.2.5,Win32,60,,,left,1.0,4.6715,0.0,41.0,41.0,61.0,1.0,25000.0,0.0,55000.0,6.0
,,,,,,,,,,,,,,,,,,,,,,,13/05/0022,116,2022-05-13_09h39.59.068,tareaTDv3,2020.2.5,Win32,60,,,right,0.0,7.3495,0.0,42.0,42.0,57.0,1.0,5000.0,0.0,55000.0,151.0
,,,,,,,,,,,,,,,,,,,,,,,13/05/0022,116,2022-05-13_09h39.59.068,tareaTDv3,2020.2.5,Win32,60,,,right,1.0,1.3082,0.0,43.0,43.0,54.0,1.0,5000.0,0.0,150000.0,90.0
,,,,,,,,,,,,,,,,,,,,,,,13/05/0022,116,2022-05-13_09h39.59.068,tareaTDv3,2020.2.5,Win32,60,,,left,1.0,1.6356,0.0,44.0,44.0,64.0,1.0,25000.0,0.0,150000.0,4.0
,,,,,,,,,,,,,,,,,,,,,,,13/05/0022,116,2022-05-13_09h39.59.068,tareaTDv3,2020.2.5,Win32,60,,,right,1.0,5.8343,0.0,45.0,45.0,29.0,1.0,10000.0,0.0,151000.0,151.0
,,,,,,,,,,,,,,,,,,,,,,,13/05/0022,116,2022-05-13_09h39.59.068,tareaTDv3,2020.2.5,Win32,60,,,right,1.0,2.5864,0.0,46.0,46.0,30.0,1.0,5000.0,0.0,16000.0,4.0
,,,,,,,,,,,,,,,,,,,,,,,13/05/0022,116,2022-05-13_09h39.59.068,tareaTDv3,2020.2.5,Win32,60,,,left,1.0,13.5676,0.0,47.0,47.0,11.0,1.0,10000.0,0.0,39000.0,29.0
,,,,,,,,,,,,,,,,,,,,,,,13/05/0022,116,2022-05-13_09h39.59.068,tareaTDv3,2020.2.5,Win32,60,,,right,0.0,2.3168,0.0,48.0,48.0,81.0,1.0,25000.0,0.0,55000.0,90.0
,,,,,,,,,,,,,,,,,,,,,,,13/05/0022,116,2022-05-13_09h39.59.068,tareaTDv3,2020.2.5,Win32,60,,,right,0.0,8.6374,0.0,49.0,49.0,89.0,1.0,25000.0,0.0,150000.0,150.0
,,,,,,,,,,,,,,,,,,,,,,,13/05/0022,116,2022-05-13_09h39.59.068,tareaTDv3,2020.2.5,Win32,60,,,right,0.0,1.3173,0.0,50.0,50.0,85.0,1.0,25000.0,0.0,35000.0,150.0
,,,,,,,,,,,,,,,,,,,,,,,13/05/0022,116,2022-05-13_09h39.59.068,tareaTDv3,2020.2.5,Win32,60,,,right,0.0,2.8507,0.0,51.0,51.0,5.0,1.0,10000.0,0.0,19000.0,11.0
,,,,,,,,,,,,,,,,,,,,,,,13/05/0022,116,2022-05-13_09h39.59.068,tareaTDv3,2020.2.5,Win32,60,,,right,0.0,2.1836,0.0,52.0,52.0,16.0,1.0,10000.0,0.0,39000.0,59.0
,,,,,,,,,,,,,,,,,,,,,,,13/05/0022,116,2022-05-13_09h39.59.068,tareaTDv3,2020.2.5,Win32,60,,,left,1.0,9.6409,0.0,53.0,53.0,35.0,1.0,5000.0,0.0,15000.0,11.0
,,,,,,,,,,,,,,,,,,,,,,,13/05/0022,116,2022-05-13_09h39.59.068,tareaTDv3,2020.2.5,Win32,60,,,left,1.0,3.2668,0.0,54.0,54.0,1.0,1.0,10000.0,0.0,39000.0,6.0
,,,,,,,,,,,,,,,,,,,,,,,13/05/0022,116,2022-05-13_09h39.59.068,tareaTDv3,2020.2.5,Win32,60,,,left,1.0,2.2865,0.0,55.0,55.0,44.0,1.0,5000.0,0.0,150000.0,30.0
,,,,,,,,,,,,,,,,,,,,,,,13/05/0022,116,2022-05-13_09h39.59.068,tareaTDv3,2020.2.5,Win32,60,,,right,1.0,3.7505,0.0,56.0,56.0,60.0,1.0,25000.0,0.0,35000.0,5.0
,,,,,,,,,,,,,,,,,,,,,,,13/05/0022,116,2022-05-13_09h39.59.068,tareaTDv3,2020.2.5,Win32,60,,,right,0.0,4.932,0.0,57.0,57.0,50.0,1.0,5000.0,0.0,15000.0,91.0
,,,,,,,,,,,,,,,,,,,,,,,13/05/0022,116,2022-05-13_09h39.59.068,tareaTDv3,2020.2.5,Win32,60,,,right,1.0,8.9091,0.0,58.0,58.0,59.0,1.0,5000.0,0.0,151000.0,150.0
,,,,,,,,,,,,,,,,,,,,,,,13/05/0022,116,2022-05-13_09h39.59.068,tareaTDv3,2020.2.5,Win32,60,,,right,1.0,4.1039,0.0,59.0,59.0,88.0,1.0,25000.0,0.0,125000.0,149.0
,,,,,,,,,,,,,,,,,,,,,,,13/05/0022,116,2022-05-13_09h39.59.068,tareaTDv3,2020.2.5,Win32,60,,,left,0.0,2.2389,0.0,60.0,60.0,71.0,1.0,25000.0,0.0,55000.0,30.0
,,,,,,,,,,,,,,,,,,,,,,,13/05/0022,116,2022-05-13_09h39.59.068,tareaTDv3,2020.2.5,Win32,60,,,right,0.0,9.3144,0.0,61.0,61.0,76.0,1.0,25000.0,0.0,55000.0,60.0
,,,,,,,,,,,,,,,,,,,,,,,13/05/0022,116,2022-05-13_09h39.59.068,tareaTDv3,2020.2.5,Win32,60,,,right,0.0,4.7565,0.0,62.0,62.0,25.0,1.0,10000.0,0.0,10000.0,150.0
,,,,,,,,,,,,,,,,,,,,,,,13/05/0022,116,2022-05-13_09h39.59.068,tareaTDv3,2020.2.5,Win32,60,,,left,1.0,3.9007,0.0,63.0,63.0,23.0,1.0,10000.0,0.0,110000.0,90.0
,,,,,,,,,,,,,,,,,,,,,,,13/05/0022,116,2022-05-13_09h39.59.068,tareaTDv3,2020.2.5,Win32,60,,,right,1.0,9.7337,0.0,64.0,64.0,66.0,1.0,25000.0,0.0,55000.0,11.0
,,,,,,,,,,,,,,,,,,,,,,,13/05/0022,116,2022-05-13_09h39.59.068,tareaTDv3,2020.2.5,Win32,60,,,right,0.0,2.4338,0.0,65.0,65.0,55.0,1.0,5000.0,0.0,14000.0,149.0
,,,,,,,,,,,,,,,,,,,,,,,13/05/0022,116,2022-05-13_09h39.59.068,tareaTDv3,2020.2.5,Win32,60,,,left,1.0,2.6732,0.0,66.0,66.0,34.0,1.0,5000.0,0.0,151000.0,4.0
,,,,,,,,,,,,,,,,,,,,,,,13/05/0022,116,2022-05-13_09h39.59.068,tareaTDv3,2020.2.5,Win32,60,,,left,1.0,2.2702,0.0,67.0,67.0,8.0,1.0,10000.0,0.0,111000.0,10.0
,,,,,,,,,,,,,,,,,,,,,,,13/05/0022,116,2022-05-13_09h39.59.068,tareaTDv3,2020.2.5,Win32,60,,,left,1.0,3.9905,0.0,68.0,68.0,62.0,1.0,25000.0,0.0,75000.0,5.0
,,,,,,,,,,,,,,,,,,,,,,,13/05/0022,116,2022-05-13_09h39.59.068,tareaTDv3,2020.2.5,Win32,60,,,left,1.0,1.5053,0.0,69.0,69.0,74.0,1.0,25000.0,0.0,150000.0,29.0
,,,,,,,,,,,,,,,,,,,,,,,13/05/0022,116,2022-05-13_09h39.59.068,tareaTDv3,2020.2.5,Win32,60,,,left,1.0,1.5233,0.0,70.0,70.0,13.0,1.0,10000.0,0.0,111000.0,30.0
,,,,,,,,,,,,,,,,,,,,,,,13/05/0022,116,2022-05-13_09h39.59.068,tareaTDv3,2020.2.5,Win32,60,,,right,1.0,1.5665,0.0,71.0,71.0,72.0,1.0,25000.0,0.0,75000.0,31.0
,,,,,,,,,,,,,,,,,,,,,,,13/05/0022,116,2022-05-13_09h39.59.068,tareaTDv3,2020.2.5,Win32,60,,,right,1.0,1.4047,0.0,72.0,72.0,6.0,1.0,10000.0,0.0,40000.0,10.0
,,,,,,,,,,,,,,,,,,,,,,,13/05/0022,116,2022-05-13_09h39.59.068,tareaTDv3,2020.2.5,Win32,60,,,left,1.0,5.1443,0.0,73.0,73.0,77.0,1.0,25000.0,0.0,75000.0,59.0
,,,,,,,,,,,,,,,,,,,,,,,13/05/0022,116,2022-05-13_09h39.59.068,tareaTDv3,2020.2.5,Win32,60,,,left,0.0,2.3104,0.0,74.0,74.0,46.0,1.0,5000.0,0.0,36000.0,61.0
,,,,,,,,,,,,,,,,,,,,,,,13/05/0022,116,2022-05-13_09h39.59.068,tareaTDv3,2020.2.5,Win32,60,,,right,1.0,2.7694,0.0,75.0,75.0,84.0,1.0,25000.0,0.0,150000.0,89.0
,,,,,,,,,,,,,,,,,,,,,,,13/05/0022,116,2022-05-13_09h39.59.068,tareaTDv3,2020.2.5,Win32,60,,,right,1.0,3.4703,0.0,76.0,76.0,42.0,1.0,5000.0,0.0,56000.0,29.0
,,,,,,,,,,,,,,,,,,,,,,,13/05/0022,116,2022-05-13_09h39.59.068,tareaTDv3,2020.2.5,Win32,60,,,left,0.0,7.2771,0.0,77.0,77.0,26.0,1.0,10000.0,0.0,39000.0,150.0
,,,,,,,,,,,,,,,,,,,,,,,13/05/0022,116,2022-05-13_09h39.59.068,tareaTDv3,2020.2.5,Win32,60,,,right,1.0,1.3224,0.0,78.0,78.0,19.0,1.0,10000.0,0.0,149000.0,61.0
,,,,,,,,,,,,,,,,,,,,,,,13/05/0022,116,2022-05-13_09h39.59.068,tareaTDv3,2020.2.5,Win32,60,,,left,1.0,1.674,0.0,79.0,79.0,73.0,1.0,25000.0,0.0,125000.0,31.0
,,,,,,,,,,,,,,,,,,,,,,,13/05/0022,116,2022-05-13_09h39.59.068,tareaTDv3,2020.2.5,Win32,60,,,right,1.0,3.1182,0.0,80.0,80.0,67.0,1.0,25000.0,0.0,75000.0,10.0
,,,,,,,,,,,,,,,,,,,,,,,13/05/0022,116,2022-05-13_09h39.59.068,tareaTDv3,2020.2.5,Win32,60,,,right,0.0,6.8356,0.0,81.0,81.0,0.0,1.0,10000.0,0.0,20000.0,5.0
,,,,,,,,,,,,,,,,,,,,,,,13/05/0022,116,2022-05-13_09h39.59.068,tareaTDv3,2020.2.5,Win32,60,,,right,0.0,3.3444,0.0,82.0,82.0,40.0,1.0,5000.0,0.0,14000.0,31.0
,,,,,,,,,,,,,,,,,,,,,,,13/05/0022,116,2022-05-13_09h39.59.068,tareaTDv3,2020.2.5,Win32,60,,,left,1.0,5.1353,0.0,83.0,83.0,41.0,1.0,5000.0,0.0,35000.0,31.0
,,,,,,,,,,,,,,,,,,,,,,,13/05/0022,116,2022-05-13_09h39.59.068,tareaTDv3,2020.2.5,Win32,60,,,right,1.0,1.1781,0.0,84.0,84.0,24.0,1.0,10000.0,0.0,149000.0,89.0
,,,,,,,,,,,,,,,,,,,,,,,13/05/0022,116,2022-05-13_09h39.59.068,tareaTDv3,2020.2.5,Win32,60,,,left,1.0,2.1219,0.0,85.0,85.0,31.0,1.0,5000.0,0.0,35000.0,6.0
,,,,,,,,,,,,,,,,,,,,,,,13/05/0022,116,2022-05-13_09h39.59.068,tareaTDv3,2020.2.5,Win32,60,,,right,0.0,2.6354,0.0,86.0,86.0,20.0,1.0,10000.0,0.0,20000.0,90.0
,,,,,,,,,,,,,,,,,,,,,,,13/05/0022,116,2022-05-13_09h39.59.068,tareaTDv3,2020.2.5,Win32,60,,,right,0.0,2.7578,0.0,87.0,87.0,45.0,1.0,5000.0,0.0,15000.0,61.0
,,,,,,,,,,,,,,,,,,,,,,,13/05/0022,116,2022-05-13_09h39.59.068,tareaTDv3,2020.2.5,Win32,60,,,right,1.0,3.1616,0.0,88.0,88.0,83.0,1.0,25000.0,0.0,125000.0,89.0
,,,,,,,,,,,,,,,,,,,,,,,13/05/0022,116,2022-05-13_09h39.59.068,tareaTDv3,2020.2.5,Win32,60,,,right,1.0,4.8995,0.0,89.0,89.0,53.0,1.0,5000.0,0.0,104000.0,90.0
