key1.keys,key1.rt,key2.keys,key2.rt,key2_2.keys,key2_2.rt,key2_3.keys,key2_3.rt,key3.keys,key3.rt,key4.keys,key4.rt,respP.keys,respP.corr,respP.rt,Practice.thisRepN,Practice.thisTrialN,Practice.thisN,Practice.thisIndex,Practice.ran,ssAmount,llAmount,llDelay,session,participant,date,expName,psychopyVersion,OS,frameRate,key5.keys,key5.rt,respT.keys,respT.corr,respT.rt,trials.thisRepN,trials.thisTrialN,trials.thisN,trials.thisIndex,trials.ran,ss_am,ss_del,ll_am,ll_del
space,21.39749,space,6.365865,space,4.248595,space,6.69289,left,5.003505,space,1.973605,right,0.0,18.18195,0.0,0.0,0.0,2.0,1.0,10000.0,19000.0,89.0,2,134,2020-11-12_11h21.34.266,tareaTDv3,2020.2.5,Win32,60,,,,,,,,,,,,,,
,,,,,,,,,,,,right,1.0,10.88622,0.0,1.0,1.0,0.0,1.0,10000.0,109000.0,9.0,2,134,2020-11-12_11h21.34.266,tareaTDv3,2020.2.5,Win32,60,,,,,,,,,,,,,,
,,,,,,,,,,,,left,0.0,7.462525,0.0,2.0,2.0,1.0,1.0,25000.0,35000.0,150.0,2,134,2020-11-12_11h21.34.266,tareaTDv3,2020.2.5,Win32,60,,,,,,,,,,,,,,
,,,,,,,,,,,,,,,,,,,,,,,2,134,2020-11-12_11h21.34.266,tareaTDv3,2020.2.5,Win32,60,g,7.994135,right,1.0,10.895635,0.0,0.0,0.0,18.0,1.0,10000.0,0.0,110000.0,60.0
,,,,,,,,,,,,,,,,,,,,,,,2,134,2020-11-12_11h21.34.266,tareaTDv3,2020.2.5,Win32,60,,,left,1.0,6.18076,0.0,1.0,1.0,83.0,1.0,25000.0,0.0,125000.0,89.0
,,,,,,,,,,,,,,,,,,,,,,,2,134,2020-11-12_11h21.34.266,tareaTDv3,2020.2.5,Win32,60,,,right,1.0,3.380355,0.0,2.0,2.0,34.0,1.0,5000.0,0.0,151000.0,4.0
,,,,,,,,,,,,,,,,,,,,,,,2,134,2020-11-12_11h21.34.266,tareaTDv3,2020.2.5,Win32,60,,,left,1.0,5.41532,0.0,3.0,3.0,64.0,1.0,25000.0,0.0,150000.0,4.0
,,,,,,,,,,,,,,,,,,,,,,,2,134,2020-11-12_11h21.34.266,tareaTDv3,2020.2.5,Win32,60,,,left,0.0,10.01038,0.0,4.0,4.0,45.0,1.0,5000.0,0.0,15000.0,61.0
,,,,,,,,,,,,,,,,,,,,,,,2,134,2020-11-12_11h21.34.266,tareaTDv3,2020.2.5,Win32,60,,,left,0.0,2.39371,0.0,5.0,5.0,51.0,1.0,5000.0,0.0,35000.0,89.0
,,,,,,,,,,,,,,,,,,,,,,,2,134,2020-11-12_11h21.34.266,tareaTDv3,2020.2.5,Win32,60,,,left,1.0,5.939275,0.0,6.0,6.0,49.0,1.0,5000.0,0.0,149000.0,59.0
,,,,,,,,,,,,,,,,,,,,,,,2,134,2020-11-12_11h21.34.266,tareaTDv3,2020.2.5,Win32,60,,,left,1.0,2.478865,0.0,7.0,7.0,32.0,1.0,5000.0,0.0,54000.0,5.0
,,,,,,,,,,,,,,,,,,,,,,,2,134,2020-11-12_11h21.34.266,tareaTDv3,2020.2.5,Win32,60,,,right,1.0,8.572085,0.0,8.0,8.0,6.0,1.0,10000.0,0.0,40000.0,10.0
,,,,,,,,,,,,,,,,,,,,,,,2,134,2020-11-12_11h21.34.266,tareaTDv3,2020.2.5,Win32,60,,,left,1.0,6.29146,0.0,9.0,9.0,3.0,1.0,10000.0,0.0,109000.0,5.0
,,,,,,,,,,,,,,,,,,,,,,,2,134,2020-11-12_11h21.34.266,tareaTDv3,2020.2.5,Win32,60,,,right,0.0,3.93243,0.0,10.0,10.0,50.0,1.0,5000.0,0.0,15000.0,91.0
,,,,,,,,,,,,,,,,,,,,,,,2,134,2020-11-12_11h21.34.266,tareaTDv3,2020.2.5,Win32,60,,,right,1.0,11.51978,0.0,11.0,11.0,13.0,1.0,10000.0,0.0,111000.0,30.0
,,,,,,,,,,,,,,,,,,,,,,,2,134,2020-11-12_11h21.34.266,tareaTDv3,2020.2.5,Win32,60,,,right,0.0,8.867625,0.0,12.0,12.0,79.0,1.0,25000.0,0.0,150000.0,61.0
,,,,,,,,,,,,,,,,,,,,,,,2,134,2020-11-12_11h21.34.266,tareaTDv3,2020.2.5,Win32,60,,,left,1.0,6.32424,0.0,13.0,13.0,12.0,1.0,10000.0,0.0,60000.0,29.0
,,,,,,,,,,,,,,,,,,,,,,,2,134,2020-11-12_11h21.34.266,tareaTDv3,2020.2.5,Win32,60,,,left,0.0,5.242035,0.0,14.0,14.0,85.0,1.0,25000.0,0.0,35000.0,150.0
,,,,,,,,,,,,,,,,,,,,,,,2,134,2020-11-12_11h21.34.266,tareaTDv3,2020.2.5,Win32,60,,,left,1.0,5.999855,0.0,15.0,15.0,14.0,1.0,10000.0,0.0,150000.0,30.0
,,,,,,,,,,,,,,,,,,,,,,,2,134,2020-11-12_11h21.34.266,tareaTDv3,2020.2.5,Win32,60,,,right,0.0,15.49105,0.0,16.0,16.0,56.0,1.0,5000.0,0.0,35000.0,150.0
,,,,,,,,,,,,,,,,,,,,,,,2,134,2020-11-12_11h21.34.266,tareaTDv3,2020.2.5,Win32,60,,,right,1.0,15.87722,0.0,17.0,17.0,1.0,1.0,10000.0,0.0,39000.0,6.0
,,,,,,,,,,,,,,,,,,,,,,,2,134,2020-11-12_11h21.34.266,tareaTDv3,2020.2.5,Win32,60,,,right,1.0,6.29188,0.0,18.0,18.0,39.0,1.0,5000.0,0.0,149000.0,10.0
,,,,,,,,,,,,,,,,,,,,,,,2,134,2020-11-12_11h21.34.266,tareaTDv3,2020.2.5,Win32,60,,,left,0.0,5.290325,0.0,19.0,19.0,81.0,1.0,25000.0,0.0,55000.0,90.0
,,,,,,,,,,,,,,,,,,,,,,,2,134,2020-11-12_11h21.34.266,tareaTDv3,2020.2.5,Win32,60,,,right,0.0,11.40761,0.0,20.0,20.0,57.0,1.0,5000.0,0.0,55000.0,151.0
,,,,,,,,,,,,,,,,,,,,,,,2,134,2020-11-12_11h21.34.266,tareaTDv3,2020.2.5,Win32,60,,,left,1.0,3.126755,0.0,21.0,21.0,73.0,1.0,25000.0,0.0,125000.0,31.0
,,,,,,,,,,,,,,,,,,,,,,,2,134,2020-11-12_11h21.34.266,tareaTDv3,2020.2.5,Win32,60,,,,0.0,,0.0,22.0,22.0,80.0,1.0,25000.0,0.0,35000.0,90.0
,,,,,,,,,,,,,,,,,,,,,,,2,134,2020-11-12_11h21.34.266,tareaTDv3,2020.2.5,Win32,60,,,left,1.0,11.78187,0.0,23.0,23.0,58.0,1.0,5000.0,0.0,106000.0,152.0
,,,,,,,,,,,,,,,,,,,,,,,2,134,2020-11-12_11h21.34.266,tareaTDv3,2020.2.5,Win32,60,,,right,1.0,13.753875,0.0,24.0,24.0,48.0,1.0,5000.0,0.0,105000.0,60.0
,,,,,,,,,,,,,,,,,,,,,,,2,134,2020-11-12_11h21.34.266,tareaTDv3,2020.2.5,Win32,60,,,,0.0,,0.0,25.0,25.0,35.0,1.0,5000.0,0.0,15000.0,11.0
,,,,,,,,,,,,,,,,,,,,,,,2,134,2020-11-12_11h21.34.266,tareaTDv3,2020.2.5,Win32,60,,,right,1.0,5.520605,0.0,26.0,26.0,43.0,1.0,5000.0,0.0,106000.0,29.0
,,,,,,,,,,,,,,,,,,,,,,,2,134,2020-11-12_11h21.34.266,tareaTDv3,2020.2.5,Win32,60,,,left,0.0,3.04527,0.0,27.0,27.0,87.0,1.0,25000.0,0.0,75000.0,151.0
,,,,,,,,,,,,,,,,,,,,,,,2,134,2020-11-12_11h21.34.266,tareaTDv3,2020.2.5,Win32,60,,,right,1.0,2.732955,0.0,28.0,28.0,36.0,1.0,5000.0,0.0,36000.0,9.0
,,,,,,,,,,,,,,,,,,,,,,,2,134,2020-11-12_11h21.34.266,tareaTDv3,2020.2.5,Win32,60,,,left,1.0,12.138845,0.0,29.0,29.0,59.0,1.0,5000.0,0.0,151000.0,150.0
,,,,,,,,,,,,,,,,,,,,,,,2,134,2020-11-12_11h21.34.266,tareaTDv3,2020.2.5,Win32,60,,,right,1.0,10.97548,0.0,30.0,30.0,54.0,1.0,5000.0,0.0,150000.0,90.0
,,,,,,,,,,,,,,,,,,,,,,,2,134,2020-11-12_11h21.34.266,tareaTDv3,2020.2.5,Win32,60,,,left,1.0,2.517325,0.0,31.0,31.0,52.0,1.0,5000.0,0.0,56000.0,89.0
,,,,,,,,,,,,,,,,,,,,,,,2,134,2020-11-12_11h21.34.266,tareaTDv3,2020.2.5,Win32,60,,,right,0.0,3.697245,0.0,32.0,32.0,71.0,1.0,25000.0,0.0,55000.0,30.0
,,,,,,,,,,,,,,,,,,,,,,,2,134,2020-11-12_11h21.34.266,tareaTDv3,2020.2.5,Win32,60,,,left,0.0,2.890425,0.0,33.0,33.0,86.0,1.0,25000.0,0.0,55000.0,151.0
,,,,,,,,,,,,,,,,,,,,,,,2,134,2020-11-12_11h21.34.266,tareaTDv3,2020.2.5,Win32,60,,,left,1.0,4.63152,0.0,34.0,34.0,38.0,1.0,5000.0,0.0,104000.0,10.0
,,,,,,,,,,,,,,,,,,,,,,,2,134,2020-11-12_11h21.34.266,tareaTDv3,2020.2.5,Win32,60,,,right,0.0,4.87976,0.0,35.0,35.0,23.0,1.0,10000.0,0.0,110000.0,90.0
,,,,,,,,,,,,,,,,,,,,,,,2,134,2020-11-12_11h21.34.266,tareaTDv3,2020.2.5,Win32,60,,,right,0.0,15.320935,0.0,36.0,36.0,27.0,1.0,10000.0,0.0,61000.0,150.0
,,,,,,,,,,,,,,,,,,,,,,,2,134,2020-11-12_11h21.34.266,tareaTDv3,2020.2.5,Win32,60,,,right,1.0,1.98428,0.0,37.0,37.0,61.0,1.0,25000.0,0.0,55000.0,6.0
,,,,,,,,,,,,,,,,,,,,,,,2,134,2020-11-12_11h21.34.266,tareaTDv3,2020.2.5,Win32,60,,,left,1.0,3.549175,0.0,38.0,38.0,78.0,1.0,25000.0,0.0,125000.0,59.0
,,,,,,,,,,,,,,,,,,,,,,,2,134,2020-11-12_11h21.34.266,tareaTDv3,2020.2.5,Win32,60,,,right,0.0,2.896945,0.0,39.0,39.0,70.0,1.0,25000.0,0.0,35000.0,30.0
,,,,,,,,,,,,,,,,,,,,,,,2,134,2020-11-12_11h21.34.266,tareaTDv3,2020.2.5,Win32,60,,,left,1.0,9.638445,0.0,40.0,40.0,30.0,1.0,5000.0,0.0,16000.0,4.0
,,,,,,,,,,,,,,,,,,,,,,,2,134,2020-11-12_11h21.34.266,tareaTDv3,2020.2.5,Win32,60,,,left,0.0,8.060395,0.0,41.0,41.0,72.0,1.0,25000.0,0.0,75000.0,31.0
,,,,,,,,,,,,,,,,,,,,,,,2,134,2020-11-12_11h21.34.266,tareaTDv3,2020.2.5,Win32,60,,,left,0.0,5.14136,0.0,42.0,42.0,10.0,1.0,10000.0,0.0,21000.0,31.0
,,,,,,,,,,,,,,,,,,,,,,,2,134,2020-11-12_11h21.34.266,tareaTDv3,2020.2.5,Win32,60,,,left,0.0,5.694305,0.0,43.0,43.0,29.0,1.0,10000.0,0.0,151000.0,151.0
,,,,,,,,,,,,,,,,,,,,,,,2,134,2020-11-12_11h21.34.266,tareaTDv3,2020.2.5,Win32,60,,,right,0.0,2.668125,0.0,44.0,44.0,46.0,1.0,5000.0,0.0,36000.0,61.0
,,,,,,,,,,,,,,,,,,,,,,,2,134,2020-11-12_11h21.34.266,tareaTDv3,2020.2.5,Win32,60,,,left,0.0,3.697475,0.0,45.0,45.0,15.0,1.0,10000.0,0.0,20000.0,59.0
,,,,,,,,,,,,,,,,,,,,,,,2,134,2020-11-12_11h21.34.266,tareaTDv3,2020.2.5,Win32,60,,,right,1.0,3.62746,0.0,46.0,46.0,5.0,1.0,10000.0,0.0,19000.0,11.0
,,,,,,,,,,,,,,,,,,,,,,,2,134,2020-11-12_11h21.34.266,tareaTDv3,2020.2.5,Win32,60,,,left,1.0,2.164865,0.0,47.0,47.0,31.0,1.0,5000.0,0.0,35000.0,6.0
,,,,,,,,,,,,,,,,,,,,,,,2,134,2020-11-12_11h21.34.266,tareaTDv3,2020.2.5,Win32,60,,,left,0.0,2.311,0.0,48.0,48.0,25.0,1.0,10000.0,0.0,10000.0,150.0
,,,,,,,,,,,,,,,,,,,,,,,2,134,2020-11-12_11h21.34.266,tareaTDv3,2020.2.5,Win32,60,,,left,1.0,2.61742,0.0,49.0,49.0,2.0,1.0,10000.0,0.0,61000.0,4.0
,,,,,,,,,,,,,,,,,,,,,,,2,134,2020-11-12_11h21.34.266,tareaTDv3,2020.2.5,Win32,60,,,left,0.0,1.65179,0.0,50.0,50.0,75.0,1.0,25000.0,0.0,35000.0,60.0
,,,,,,,,,,,,,,,,,,,,,,,2,134,2020-11-12_11h21.34.266,tareaTDv3,2020.2.5,Win32,60,,,,0.0,,0.0,51.0,51.0,74.0,1.0,25000.0,0.0,150000.0,29.0
,,,,,,,,,,,,,,,,,,,,,,,2,134,2020-11-12_11h21.34.266,tareaTDv3,2020.2.5,Win32,60,,,left,1.0,3.81609,0.0,52.0,52.0,9.0,1.0,10000.0,0.0,151000.0,11.0
,,,,,,,,,,,,,,,,,,,,,,,2,134,2020-11-12_11h21.34.266,tareaTDv3,2020.2.5,Win32,60,,,left,0.0,6.51827,0.0,53.0,53.0,11.0,1.0,10000.0,0.0,39000.0,29.0
,,,,,,,,,,,,,,,,,,,,,,,2,134,2020-11-12_11h21.34.266,tareaTDv3,2020.2.5,Win32,60,,,right,0.0,1.174905,0.0,54.0,54.0,16.0,1.0,10000.0,0.0,39000.0,59.0
,,,,,,,,,,,,,,,,,,,,,,,2,134,2020-11-12_11h21.34.266,tareaTDv3,2020.2.5,Win32,60,,,right,1.0,1.202715,0.0,55.0,55.0,0.0,1.0,10000.0,0.0,20000.0,5.0
,,,,,,,,,,,,,,,,,,,,,,,2,134,2020-11-12_11h21.34.266,tareaTDv3,2020.2.5,Win32,60,,,left,1.0,3.067965,0.0,56.0,56.0,19.0,1.0,10000.0,0.0,149000.0,61.0
,,,,,,,,,,,,,,,,,,,,,,,2,134,2020-11-12_11h21.34.266,tareaTDv3,2020.2.5,Win32,60,,,right,1.0,6.296745,0.0,57.0,57.0,47.0,1.0,5000.0,0.0,56000.0,60.0
,,,,,,,,,,,,,,,,,,,,,,,2,134,2020-11-12_11h21.34.266,tareaTDv3,2020.2.5,Win32,60,,,right,1.0,1.599455,0.0,58.0,58.0,33.0,1.0,5000.0,0.0,104000.0,5.0
,,,,,,,,,,,,,,,,,,,,,,,2,134,2020-11-12_11h21.34.266,tareaTDv3,2020.2.5,Win32,60,,,right,1.0,1.84798,0.0,59.0,59.0,4.0,1.0,10000.0,0.0,150000.0,5.0
,,,,,,,,,,,,,,,,,,,,,,,2,134,2020-11-12_11h21.34.266,tareaTDv3,2020.2.5,Win32,60,,,left,0.0,0.03034,0.0,60.0,60.0,42.0,1.0,5000.0,0.0,56000.0,29.0
,,,,,,,,,,,,,,,,,,,,,,,2,134,2020-11-12_11h21.34.266,tareaTDv3,2020.2.5,Win32,60,,,left,1.0,3.79475,0.0,61.0,61.0,44.0,1.0,5000.0,0.0,150000.0,30.0
,,,,,,,,,,,,,,,,,,,,,,,2,134,2020-11-12_11h21.34.266,tareaTDv3,2020.2.5,Win32,60,,,left,0.0,2.780295,0.0,62.0,62.0,88.0,1.0,25000.0,0.0,125000.0,149.0
,,,,,,,,,,,,,,,,,,,,,,,2,134,2020-11-12_11h21.34.266,tareaTDv3,2020.2.5,Win32,60,,,left,1.0,3.463775,0.0,63.0,63.0,40.0,1.0,5000.0,0.0,14000.0,31.0
,,,,,,,,,,,,,,,,,,,,,,,2,134,2020-11-12_11h21.34.266,tareaTDv3,2020.2.5,Win32,60,,,left,0.0,2.66741,0.0,64.0,64.0,22.0,1.0,10000.0,0.0,61000.0,89.0
,,,,,,,,,,,,,,,,,,,,,,,2,134,2020-11-12_11h21.34.266,tareaTDv3,2020.2.5,Win32,60,,,left,1.0,3.465555,0.0,65.0,65.0,63.0,1.0,25000.0,0.0,125000.0,4.0
,,,,,,,,,,,,,,,,,,,,,,,2,134,2020-11-12_11h21.34.266,tareaTDv3,2020.2.5,Win32,60,,,left,1.0,1.93434,0.0,66.0,66.0,41.0,1.0,5000.0,0.0,35000.0,31.0
,,,,,,,,,,,,,,,,,,,,,,,2,134,2020-11-12_11h21.34.266,tareaTDv3,2020.2.5,Win32,60,,,left,0.0,5.631175,0.0,67.0,67.0,55.0,1.0,5000.0,0.0,14000.0,149.0
,,,,,,,,,,,,,,,,,,,,,,,2,134,2020-11-12_11h21.34.266,tareaTDv3,2020.2.5,Win32,60,,,left,1.0,3.78737,0.0,68.0,68.0,68.0,1.0,25000.0,0.0,125000.0,9.0
,,,,,,,,,,,,,,,,,,,,,,,2,134,2020-11-12_11h21.34.266,tareaTDv3,2020.2.5,Win32,60,,,right,1.0,1.0509,0.0,69.0,69.0,69.0,1.0,25000.0,0.0,150000.0,9.0
,,,,,,,,,,,,,,,,,,,,,,,2,134,2020-11-12_11h21.34.266,tareaTDv3,2020.2.5,Win32,60,,,left,0.0,2.383125,0.0,70.0,70.0,17.0,1.0,10000.0,0.0,60000.0,60.0
,,,,,,,,,,,,,,,,,,,,,,,2,134,2020-11-12_11h21.34.266,tareaTDv3,2020.2.5,Win32,60,,,right,0.0,4.329495,0.0,71.0,71.0,82.0,1.0,25000.0,0.0,75000.0,90.0
,,,,,,,,,,,,,,,,,,,,,,,2,134,2020-11-12_11h21.34.266,tareaTDv3,2020.2.5,Win32,60,,,left,1.0,9.662005,0.0,72.0,72.0,66.0,1.0,25000.0,0.0,55000.0,11.0
,,,,,,,,,,,,,,,,,,,,,,,2,134,2020-11-12_11h21.34.266,tareaTDv3,2020.2.5,Win32,60,,,right,1.0,1.50872,0.0,73.0,73.0,37.0,1.0,5000.0,0.0,56000.0,9.0
,,,,,,,,,,,,,,,,,,,,,,,2,134,2020-11-12_11h21.34.266,tareaTDv3,2020.2.5,Win32,60,,,left,0.0,3.346015,0.0,74.0,74.0,76.0,1.0,25000.0,0.0,55000.0,60.0
,,,,,,,,,,,,,,,,,,,,,,,2,134,2020-11-12_11h21.34.266,tareaTDv3,2020.2.5,Win32,60,,,left,0.0,1.915735,0.0,75.0,75.0,24.0,1.0,10000.0,0.0,149000.0,89.0
,,,,,,,,,,,,,,,,,,,,,,,2,134,2020-11-12_11h21.34.266,tareaTDv3,2020.2.5,Win32,60,,,right,0.0,3.306465,0.0,76.0,76.0,84.0,1.0,25000.0,0.0,150000.0,89.0
,,,,,,,,,,,,,,,,,,,,,,,2,134,2020-11-12_11h21.34.266,tareaTDv3,2020.2.5,Win32,60,,,right,1.0,1.293185,0.0,77.0,77.0,62.0,1.0,25000.0,0.0,75000.0,5.0
,,,,,,,,,,,,,,,,,,,,,,,2,134,2020-11-12_11h21.34.266,tareaTDv3,2020.2.5,Win32,60,,,left,1.0,7.9904,0.0,78.0,78.0,60.0,1.0,25000.0,0.0,35000.0,5.0
,,,,,,,,,,,,,,,,,,,,,,,2,134,2020-11-12_11h21.34.266,tareaTDv3,2020.2.5,Win32,60,,,left,0.0,1.333215,0.0,79.0,79.0,26.0,1.0,10000.0,0.0,39000.0,150.0
,,,,,,,,,,,,,,,,,,,,,,,2,134,2020-11-12_11h21.34.266,tareaTDv3,2020.2.5,Win32,60,,,right,1.0,2.14953,0.0,80.0,80.0,67.0,1.0,25000.0,0.0,75000.0,10.0
,,,,,,,,,,,,,,,,,,,,,,,2,134,2020-11-12_11h21.34.266,tareaTDv3,2020.2.5,Win32,60,,,right,1.0,2.60383,0.0,81.0,81.0,7.0,1.0,10000.0,0.0,59000.0,9.0
,,,,,,,,,,,,,,,,,,,,,,,2,134,2020-11-12_11h21.34.266,tareaTDv3,2020.2.5,Win32,60,,,left,0.0,2.40566,0.0,82.0,82.0,65.0,1.0,25000.0,0.0,35000.0,11.0
,,,,,,,,,,,,,,,,,,,,,,,2,134,2020-11-12_11h21.34.266,tareaTDv3,2020.2.5,Win32,60,,,left,1.0,1.732845,0.0,83.0,83.0,20.0,1.0,10000.0,0.0,20000.0,90.0
,,,,,,,,,,,,,,,,,,,,,,,2,134,2020-11-12_11h21.34.266,tareaTDv3,2020.2.5,Win32,60,,,left,0.0,2.858265,0.0,84.0,84.0,77.0,1.0,25000.0,0.0,75000.0,59.0
,,,,,,,,,,,,,,,,,,,,,,,2,134,2020-11-12_11h21.34.266,tareaTDv3,2020.2.5,Win32,60,,,right,0.0,4.687475,0.0,85.0,85.0,28.0,1.0,10000.0,0.0,109000.0,149.0
,,,,,,,,,,,,,,,,,,,,,,,2,134,2020-11-12_11h21.34.266,tareaTDv3,2020.2.5,Win32,60,,,left,0.0,2.71826,0.0,86.0,86.0,89.0,1.0,25000.0,0.0,150000.0,150.0
,,,,,,,,,,,,,,,,,,,,,,,2,134,2020-11-12_11h21.34.266,tareaTDv3,2020.2.5,Win32,60,,,left,1.0,5.10106,0.0,87.0,87.0,53.0,1.0,5000.0,0.0,104000.0,90.0
,,,,,,,,,,,,,,,,,,,,,,,2,134,2020-11-12_11h21.34.266,tareaTDv3,2020.2.5,Win32,60,,,left,0.0,4.28258,0.0,88.0,88.0,21.0,1.0,10000.0,0.0,40000.0,91.0
,,,,,,,,,,,,,,,,,,,,,,,2,134,2020-11-12_11h21.34.266,tareaTDv3,2020.2.5,Win32,60,,,right,1.0,3.33057,0.0,89.0,89.0,8.0,1.0,10000.0,0.0,111000.0,10.0
