key1.keys,key1.rt,key2.keys,key2.rt,key2_2.keys,key2_2.rt,key2_3.keys,key2_3.rt,key3.keys,key3.rt,key4.keys,key4.rt,respP.keys,respP.corr,respP.rt,Practice.thisRepN,Practice.thisTrialN,Practice.thisN,Practice.thisIndex,Practice.ran,ssAmount,llAmount,llDelay,session,participant,date,expName,psychopyVersion,OS,frameRate,key5.keys,key5.rt,respT.keys,respT.corr,respT.rt,trials.thisRepN,trials.thisTrialN,trials.thisN,trials.thisIndex,trials.ran,ss_am,ss_del,ll_am,ll_del,key_resp_4.keys,key_resp_4.rt
space,4.88389,space,21.66413,space,22.052965,space,3.660215,right,17.145935,space,2.783095,left,0.0,6.675285,0.0,0.0,0.0,1.0,1.0,25000.0,35000.0,150.0,2,190,2020-11-12_11h23.15.717,tareaTDv3,2020.2.5,Win32,60,,,,,,,,,,,,,,,,
,,,,,,,,,,,,right,0.0,8.36782,0.0,1.0,1.0,0.0,1.0,10000.0,109000.0,9.0,2,190,2020-11-12_11h23.15.717,tareaTDv3,2020.2.5,Win32,60,,,,,,,,,,,,,,,,
,,,,,,,,,,,,right,0.0,4.63423,0.0,2.0,2.0,2.0,1.0,10000.0,19000.0,89.0,2,190,2020-11-12_11h23.15.717,tareaTDv3,2020.2.5,Win32,60,,,,,,,,,,,,,,,,
,,,,,,,,,,,,,,,,,,,,,,,2,190,2020-11-12_11h23.15.717,tareaTDv3,2020.2.5,Win32,60,g,417.84505,right,1.0,17.00947,0.0,0.0,0.0,76.0,1.0,25000.0,0.0,55000.0,60.0,,
,,,,,,,,,,,,,,,,,,,,,,,2,190,2020-11-12_11h23.15.717,tareaTDv3,2020.2.5,Win32,60,,,left,0.0,2.518315,0.0,1.0,1.0,50.0,1.0,5000.0,0.0,15000.0,91.0,,
,,,,,,,,,,,,,,,,,,,,,,,2,190,2020-11-12_11h23.15.717,tareaTDv3,2020.2.5,Win32,60,,,left,1.0,2.6526,0.0,2.0,2.0,71.0,1.0,25000.0,0.0,55000.0,30.0,,
,,,,,,,,,,,,,,,,,,,,,,,2,190,2020-11-12_11h23.15.717,tareaTDv3,2020.2.5,Win32,60,,,left,1.0,7.21504,0.0,3.0,3.0,27.0,1.0,10000.0,0.0,61000.0,150.0,,
,,,,,,,,,,,,,,,,,,,,,,,2,190,2020-11-12_11h23.15.717,tareaTDv3,2020.2.5,Win32,60,,,left,0.0,2.43353,0.0,4.0,4.0,56.0,1.0,5000.0,0.0,35000.0,150.0,,
,,,,,,,,,,,,,,,,,,,,,,,2,190,2020-11-12_11h23.15.717,tareaTDv3,2020.2.5,Win32,60,,,right,0.0,4.268355,0.0,5.0,5.0,45.0,1.0,5000.0,0.0,15000.0,61.0,,
,,,,,,,,,,,,,,,,,,,,,,,2,190,2020-11-12_11h23.15.717,tareaTDv3,2020.2.5,Win32,60,,,left,1.0,3.918645,0.0,6.0,6.0,68.0,1.0,25000.0,0.0,125000.0,9.0,,
,,,,,,,,,,,,,,,,,,,,,,,2,190,2020-11-12_11h23.15.717,tareaTDv3,2020.2.5,Win32,60,,,right,1.0,5.510625,0.0,7.0,7.0,87.0,1.0,25000.0,0.0,75000.0,151.0,,
,,,,,,,,,,,,,,,,,,,,,,,2,190,2020-11-12_11h23.15.717,tareaTDv3,2020.2.5,Win32,60,,,right,1.0,2.600635,0.0,8.0,8.0,59.0,1.0,5000.0,0.0,151000.0,150.0,,
,,,,,,,,,,,,,,,,,,,,,,,2,190,2020-11-12_11h23.15.717,tareaTDv3,2020.2.5,Win32,60,,,left,1.0,4.93596,0.0,9.0,9.0,21.0,1.0,10000.0,0.0,40000.0,91.0,,
,,,,,,,,,,,,,,,,,,,,,,,2,190,2020-11-12_11h23.15.717,tareaTDv3,2020.2.5,Win32,60,,,right,1.0,3.14977,0.0,10.0,10.0,81.0,1.0,25000.0,0.0,55000.0,90.0,,
,,,,,,,,,,,,,,,,,,,,,,,2,190,2020-11-12_11h23.15.717,tareaTDv3,2020.2.5,Win32,60,,,right,1.0,2.098935,0.0,11.0,11.0,30.0,1.0,5000.0,0.0,16000.0,4.0,,
,,,,,,,,,,,,,,,,,,,,,,,2,190,2020-11-12_11h23.15.717,tareaTDv3,2020.2.5,Win32,60,,,left,1.0,4.23567,0.0,12.0,12.0,12.0,1.0,10000.0,0.0,60000.0,29.0,,
,,,,,,,,,,,,,,,,,,,,,,,2,190,2020-11-12_11h23.15.717,tareaTDv3,2020.2.5,Win32,60,,,left,1.0,2.139145,0.0,13.0,13.0,62.0,1.0,25000.0,0.0,75000.0,5.0,,
,,,,,,,,,,,,,,,,,,,,,,,2,190,2020-11-12_11h23.15.717,tareaTDv3,2020.2.5,Win32,60,,,right,1.0,1.967095,0.0,14.0,14.0,23.0,1.0,10000.0,0.0,110000.0,90.0,,
,,,,,,,,,,,,,,,,,,,,,,,2,190,2020-11-12_11h23.15.717,tareaTDv3,2020.2.5,Win32,60,,,left,0.0,2.383925,0.0,15.0,15.0,86.0,1.0,25000.0,0.0,55000.0,151.0,,
,,,,,,,,,,,,,,,,,,,,,,,2,190,2020-11-12_11h23.15.717,tareaTDv3,2020.2.5,Win32,60,,,right,1.0,1.202905,0.0,16.0,16.0,13.0,1.0,10000.0,0.0,111000.0,30.0,,
,,,,,,,,,,,,,,,,,,,,,,,2,190,2020-11-12_11h23.15.717,tareaTDv3,2020.2.5,Win32,60,,,right,1.0,1.295245,0.0,17.0,17.0,2.0,1.0,10000.0,0.0,61000.0,4.0,,
,,,,,,,,,,,,,,,,,,,,,,,2,190,2020-11-12_11h23.15.717,tareaTDv3,2020.2.5,Win32,60,,,left,1.0,3.060895,0.0,18.0,18.0,46.0,1.0,5000.0,0.0,36000.0,61.0,,
,,,,,,,,,,,,,,,,,,,,,,,2,190,2020-11-12_11h23.15.717,tareaTDv3,2020.2.5,Win32,60,,,right,0.0,2.533995,0.0,19.0,19.0,85.0,1.0,25000.0,0.0,35000.0,150.0,,
,,,,,,,,,,,,,,,,,,,,,,,2,190,2020-11-12_11h23.15.717,tareaTDv3,2020.2.5,Win32,60,,,left,1.0,1.51684,0.0,20.0,20.0,34.0,1.0,5000.0,0.0,151000.0,4.0,,
,,,,,,,,,,,,,,,,,,,,,,,2,190,2020-11-12_11h23.15.717,tareaTDv3,2020.2.5,Win32,60,,,right,1.0,1.687475,0.0,21.0,21.0,67.0,1.0,25000.0,0.0,75000.0,10.0,,
,,,,,,,,,,,,,,,,,,,,,,,2,190,2020-11-12_11h23.15.717,tareaTDv3,2020.2.5,Win32,60,,,left,1.0,2.842985,0.0,22.0,22.0,83.0,1.0,25000.0,0.0,125000.0,89.0,,
,,,,,,,,,,,,,,,,,,,,,,,2,190,2020-11-12_11h23.15.717,tareaTDv3,2020.2.5,Win32,60,,,left,1.0,15.12857,0.0,23.0,23.0,73.0,1.0,25000.0,0.0,125000.0,31.0,,
,,,,,,,,,,,,,,,,,,,,,,,2,190,2020-11-12_11h23.15.717,tareaTDv3,2020.2.5,Win32,60,,,right,1.0,1.72712,0.0,24.0,24.0,74.0,1.0,25000.0,0.0,150000.0,29.0,,
,,,,,,,,,,,,,,,,,,,,,,,2,190,2020-11-12_11h23.15.717,tareaTDv3,2020.2.5,Win32,60,,,left,1.0,1.1546,0.0,25.0,25.0,31.0,1.0,5000.0,0.0,35000.0,6.0,,
,,,,,,,,,,,,,,,,,,,,,,,2,190,2020-11-12_11h23.15.717,tareaTDv3,2020.2.5,Win32,60,,,right,1.0,1.32109,0.0,26.0,26.0,18.0,1.0,10000.0,0.0,110000.0,60.0,,
,,,,,,,,,,,,,,,,,,,,,,,2,190,2020-11-12_11h23.15.717,tareaTDv3,2020.2.5,Win32,60,,,right,1.0,1.021415,0.0,27.0,27.0,38.0,1.0,5000.0,0.0,104000.0,10.0,,
,,,,,,,,,,,,,,,,,,,,,,,2,190,2020-11-12_11h23.15.717,tareaTDv3,2020.2.5,Win32,60,,,right,0.0,2.14832,0.0,28.0,28.0,70.0,1.0,25000.0,0.0,35000.0,30.0,,
,,,,,,,,,,,,,,,,,,,,,,,2,190,2020-11-12_11h23.15.717,tareaTDv3,2020.2.5,Win32,60,,,left,1.0,2.38398,0.0,29.0,29.0,49.0,1.0,5000.0,0.0,149000.0,59.0,,
,,,,,,,,,,,,,,,,,,,,,,,2,190,2020-11-12_11h23.15.717,tareaTDv3,2020.2.5,Win32,60,,,left,0.0,3.434745,0.0,30.0,30.0,20.0,1.0,10000.0,0.0,20000.0,90.0,,
,,,,,,,,,,,,,,,,,,,,,,,2,190,2020-11-12_11h23.15.717,tareaTDv3,2020.2.5,Win32,60,,,right,1.0,2.51998,0.0,31.0,31.0,63.0,1.0,25000.0,0.0,125000.0,4.0,,
,,,,,,,,,,,,,,,,,,,,,,,2,190,2020-11-12_11h23.15.717,tareaTDv3,2020.2.5,Win32,60,,,left,1.0,1.05496,0.0,32.0,32.0,19.0,1.0,10000.0,0.0,149000.0,61.0,,
,,,,,,,,,,,,,,,,,,,,,,,2,190,2020-11-12_11h23.15.717,tareaTDv3,2020.2.5,Win32,60,,,right,1.0,2.30098,0.0,33.0,33.0,60.0,1.0,25000.0,0.0,35000.0,5.0,,
,,,,,,,,,,,,,,,,,,,,,,,2,190,2020-11-12_11h23.15.717,tareaTDv3,2020.2.5,Win32,60,,,left,1.0,1.28571,0.0,34.0,34.0,9.0,1.0,10000.0,0.0,151000.0,11.0,,
,,,,,,,,,,,,,,,,,,,,,,,2,190,2020-11-12_11h23.15.717,tareaTDv3,2020.2.5,Win32,60,,,right,1.0,1.02216,0.0,35.0,35.0,42.0,1.0,5000.0,0.0,56000.0,29.0,,
,,,,,,,,,,,,,,,,,,,,,,,2,190,2020-11-12_11h23.15.717,tareaTDv3,2020.2.5,Win32,60,,,right,1.0,1.916775,0.0,36.0,36.0,17.0,1.0,10000.0,0.0,60000.0,60.0,,
,,,,,,,,,,,,,,,,,,,,,,,2,190,2020-11-12_11h23.15.717,tareaTDv3,2020.2.5,Win32,60,,,right,1.0,1.355635,0.0,37.0,37.0,54.0,1.0,5000.0,0.0,150000.0,90.0,,
,,,,,,,,,,,,,,,,,,,,,,,2,190,2020-11-12_11h23.15.717,tareaTDv3,2020.2.5,Win32,60,,,right,0.0,2.588205,0.0,38.0,38.0,75.0,1.0,25000.0,0.0,35000.0,60.0,,
,,,,,,,,,,,,,,,,,,,,,,,2,190,2020-11-12_11h23.15.717,tareaTDv3,2020.2.5,Win32,60,,,,0.0,,0.0,39.0,39.0,55.0,1.0,5000.0,0.0,14000.0,149.0,,
,,,,,,,,,,,,,,,,,,,,,,,2,190,2020-11-12_11h23.15.717,tareaTDv3,2020.2.5,Win32,60,,,left,1.0,3.38259,0.0,40.0,40.0,8.0,1.0,10000.0,0.0,111000.0,10.0,,
,,,,,,,,,,,,,,,,,,,,,,,2,190,2020-11-12_11h23.15.717,tareaTDv3,2020.2.5,Win32,60,,,left,1.0,1.226015,0.0,41.0,41.0,69.0,1.0,25000.0,0.0,150000.0,9.0,,
,,,,,,,,,,,,,,,,,,,,,,,2,190,2020-11-12_11h23.15.717,tareaTDv3,2020.2.5,Win32,60,,,left,1.0,1.215115,0.0,42.0,42.0,3.0,1.0,10000.0,0.0,109000.0,5.0,,
,,,,,,,,,,,,,,,,,,,,,,,2,190,2020-11-12_11h23.15.717,tareaTDv3,2020.2.5,Win32,60,,,left,1.0,5.318875,0.0,43.0,43.0,5.0,1.0,10000.0,0.0,19000.0,11.0,,
,,,,,,,,,,,,,,,,,,,,,,,2,190,2020-11-12_11h23.15.717,tareaTDv3,2020.2.5,Win32,60,,,left,1.0,3.96099,0.0,44.0,44.0,51.0,1.0,5000.0,0.0,35000.0,89.0,,
,,,,,,,,,,,,,,,,,,,,,,,2,190,2020-11-12_11h23.15.717,tareaTDv3,2020.2.5,Win32,60,,,left,0.0,1.84005,0.0,45.0,45.0,15.0,1.0,10000.0,0.0,20000.0,59.0,,
,,,,,,,,,,,,,,,,,,,,,,,2,190,2020-11-12_11h23.15.717,tareaTDv3,2020.2.5,Win32,60,,,right,1.0,1.05085,0.0,46.0,46.0,4.0,1.0,10000.0,0.0,150000.0,5.0,,
,,,,,,,,,,,,,,,,,,,,,,,2,190,2020-11-12_11h23.15.717,tareaTDv3,2020.2.5,Win32,60,,,left,1.0,3.38632,0.0,47.0,47.0,35.0,1.0,5000.0,0.0,15000.0,11.0,,
,,,,,,,,,,,,,,,,,,,,,,,2,190,2020-11-12_11h23.15.717,tareaTDv3,2020.2.5,Win32,60,,,left,1.0,3.3249,0.0,48.0,48.0,32.0,1.0,5000.0,0.0,54000.0,5.0,,
,,,,,,,,,,,,,,,,,,,,,,,2,190,2020-11-12_11h23.15.717,tareaTDv3,2020.2.5,Win32,60,,,left,0.0,2.617035,0.0,49.0,49.0,88.0,1.0,25000.0,0.0,125000.0,149.0,,
,,,,,,,,,,,,,,,,,,,,,,,2,190,2020-11-12_11h23.15.717,tareaTDv3,2020.2.5,Win32,60,,,right,0.0,4.95061,0.0,50.0,50.0,16.0,1.0,10000.0,0.0,39000.0,59.0,,
,,,,,,,,,,,,,,,,,,,,,,,2,190,2020-11-12_11h23.15.717,tareaTDv3,2020.2.5,Win32,60,,,right,1.0,2.82189,0.0,51.0,51.0,29.0,1.0,10000.0,0.0,151000.0,151.0,,
,,,,,,,,,,,,,,,,,,,,,,,2,190,2020-11-12_11h23.15.717,tareaTDv3,2020.2.5,Win32,60,,,right,1.0,3.10904,0.0,52.0,52.0,24.0,1.0,10000.0,0.0,149000.0,89.0,,
,,,,,,,,,,,,,,,,,,,,,,,2,190,2020-11-12_11h23.15.717,tareaTDv3,2020.2.5,Win32,60,,,left,1.0,3.65955,0.0,53.0,53.0,53.0,1.0,5000.0,0.0,104000.0,90.0,,
,,,,,,,,,,,,,,,,,,,,,,,2,190,2020-11-12_11h23.15.717,tareaTDv3,2020.2.5,Win32,60,,,right,1.0,1.155465,0.0,54.0,54.0,39.0,1.0,5000.0,0.0,149000.0,10.0,,
,,,,,,,,,,,,,,,,,,,,,,,2,190,2020-11-12_11h23.15.717,tareaTDv3,2020.2.5,Win32,60,,,right,1.0,1.602135,0.0,55.0,55.0,66.0,1.0,25000.0,0.0,55000.0,11.0,,
,,,,,,,,,,,,,,,,,,,,,,,2,190,2020-11-12_11h23.15.717,tareaTDv3,2020.2.5,Win32,60,,,left,1.0,1.05242,0.0,56.0,56.0,11.0,1.0,10000.0,0.0,39000.0,29.0,,
,,,,,,,,,,,,,,,,,,,,,,,2,190,2020-11-12_11h23.15.717,tareaTDv3,2020.2.5,Win32,60,,,left,1.0,0.736235,0.0,57.0,57.0,0.0,1.0,10000.0,0.0,20000.0,5.0,,
,,,,,,,,,,,,,,,,,,,,,,,2,190,2020-11-12_11h23.15.717,tareaTDv3,2020.2.5,Win32,60,,,right,1.0,0.718075,0.0,58.0,58.0,33.0,1.0,5000.0,0.0,104000.0,5.0,,
,,,,,,,,,,,,,,,,,,,,,,,2,190,2020-11-12_11h23.15.717,tareaTDv3,2020.2.5,Win32,60,,,right,0.0,1.487295,0.0,59.0,59.0,65.0,1.0,25000.0,0.0,35000.0,11.0,,
,,,,,,,,,,,,,,,,,,,,,,,2,190,2020-11-12_11h23.15.717,tareaTDv3,2020.2.5,Win32,60,,,right,1.0,0.751095,0.0,60.0,60.0,47.0,1.0,5000.0,0.0,56000.0,60.0,,
,,,,,,,,,,,,,,,,,,,,,,,2,190,2020-11-12_11h23.15.717,tareaTDv3,2020.2.5,Win32,60,,,right,1.0,1.00584,0.0,61.0,61.0,37.0,1.0,5000.0,0.0,56000.0,9.0,,
,,,,,,,,,,,,,,,,,,,,,,,2,190,2020-11-12_11h23.15.717,tareaTDv3,2020.2.5,Win32,60,,,left,0.0,1.15245,0.0,62.0,62.0,77.0,1.0,25000.0,0.0,75000.0,59.0,,
,,,,,,,,,,,,,,,,,,,,,,,2,190,2020-11-12_11h23.15.717,tareaTDv3,2020.2.5,Win32,60,,,right,0.0,1.622115,0.0,63.0,63.0,84.0,1.0,25000.0,0.0,150000.0,89.0,,
,,,,,,,,,,,,,,,,,,,,,,,2,190,2020-11-12_11h23.15.717,tareaTDv3,2020.2.5,Win32,60,,,right,1.0,1.63379,0.0,64.0,64.0,22.0,1.0,10000.0,0.0,61000.0,89.0,,
,,,,,,,,,,,,,,,,,,,,,,,2,190,2020-11-12_11h23.15.717,tareaTDv3,2020.2.5,Win32,60,,,right,1.0,1.324165,0.0,65.0,65.0,80.0,1.0,25000.0,0.0,35000.0,90.0,,
,,,,,,,,,,,,,,,,,,,,,,,2,190,2020-11-12_11h23.15.717,tareaTDv3,2020.2.5,Win32,60,,,left,1.0,0.819975,0.0,66.0,66.0,78.0,1.0,25000.0,0.0,125000.0,59.0,,
,,,,,,,,,,,,,,,,,,,,,,,2,190,2020-11-12_11h23.15.717,tareaTDv3,2020.2.5,Win32,60,,,left,0.0,1.48382,0.0,67.0,67.0,25.0,1.0,10000.0,0.0,10000.0,150.0,,
,,,,,,,,,,,,,,,,,,,,,,,2,190,2020-11-12_11h23.15.717,tareaTDv3,2020.2.5,Win32,60,,,left,1.0,1.919985,0.0,68.0,68.0,52.0,1.0,5000.0,0.0,56000.0,89.0,,
,,,,,,,,,,,,,,,,,,,,,,,2,190,2020-11-12_11h23.15.717,tareaTDv3,2020.2.5,Win32,60,,,left,1.0,0.714795,0.0,69.0,69.0,28.0,1.0,10000.0,0.0,109000.0,149.0,,
,,,,,,,,,,,,,,,,,,,,,,,2,190,2020-11-12_11h23.15.717,tareaTDv3,2020.2.5,Win32,60,,,right,1.0,3.79068,0.0,70.0,70.0,72.0,1.0,25000.0,0.0,75000.0,31.0,,
,,,,,,,,,,,,,,,,,,,,,,,2,190,2020-11-12_11h23.15.717,tareaTDv3,2020.2.5,Win32,60,,,left,1.0,2.667225,0.0,71.0,71.0,58.0,1.0,5000.0,0.0,106000.0,152.0,,
,,,,,,,,,,,,,,,,,,,,,,,2,190,2020-11-12_11h23.15.717,tareaTDv3,2020.2.5,Win32,60,,,left,1.0,4.13449,0.0,72.0,72.0,7.0,1.0,10000.0,0.0,59000.0,9.0,,
,,,,,,,,,,,,,,,,,,,,,,,2,190,2020-11-12_11h23.15.717,tareaTDv3,2020.2.5,Win32,60,,,right,1.0,1.846115,0.0,73.0,73.0,61.0,1.0,25000.0,0.0,55000.0,6.0,,
,,,,,,,,,,,,,,,,,,,,,,,2,190,2020-11-12_11h23.15.717,tareaTDv3,2020.2.5,Win32,60,,,left,1.0,0.433055,0.0,74.0,74.0,36.0,1.0,5000.0,0.0,36000.0,9.0,,
,,,,,,,,,,,,,,,,,,,,,,,2,190,2020-11-12_11h23.15.717,tareaTDv3,2020.2.5,Win32,60,,,right,1.0,2.767555,0.0,75.0,75.0,10.0,1.0,10000.0,0.0,21000.0,31.0,,
,,,,,,,,,,,,,,,,,,,,,,,2,190,2020-11-12_11h23.15.717,tareaTDv3,2020.2.5,Win32,60,,,right,1.0,1.270315,0.0,76.0,76.0,1.0,1.0,10000.0,0.0,39000.0,6.0,,
,,,,,,,,,,,,,,,,,,,,,,,2,190,2020-11-12_11h23.15.717,tareaTDv3,2020.2.5,Win32,60,,,right,0.0,3.4671,0.0,77.0,77.0,57.0,1.0,5000.0,0.0,55000.0,151.0,,
,,,,,,,,,,,,,,,,,,,,,,,2,190,2020-11-12_11h23.15.717,tareaTDv3,2020.2.5,Win32,60,,,right,1.0,1.62554,0.0,78.0,78.0,64.0,1.0,25000.0,0.0,150000.0,4.0,,
,,,,,,,,,,,,,,,,,,,,,,,2,190,2020-11-12_11h23.15.717,tareaTDv3,2020.2.5,Win32,60,,,right,0.0,1.546125,0.0,79.0,79.0,82.0,1.0,25000.0,0.0,75000.0,90.0,,
,,,,,,,,,,,,,,,,,,,,,,,2,190,2020-11-12_11h23.15.717,tareaTDv3,2020.2.5,Win32,60,,,right,1.0,2.54979,0.0,80.0,80.0,48.0,1.0,5000.0,0.0,105000.0,60.0,,
,,,,,,,,,,,,,,,,,,,,,,,2,190,2020-11-12_11h23.15.717,tareaTDv3,2020.2.5,Win32,60,,,left,1.0,1.20245,0.0,81.0,81.0,89.0,1.0,25000.0,0.0,150000.0,150.0,,
,,,,,,,,,,,,,,,,,,,,,,,2,190,2020-11-12_11h23.15.717,tareaTDv3,2020.2.5,Win32,60,,,right,1.0,0.403735,0.0,82.0,82.0,41.0,1.0,5000.0,0.0,35000.0,31.0,,
,,,,,,,,,,,,,,,,,,,,,,,2,190,2020-11-12_11h23.15.717,tareaTDv3,2020.2.5,Win32,60,,,right,1.0,0.82182,0.0,83.0,83.0,40.0,1.0,5000.0,0.0,14000.0,31.0,,
,,,,,,,,,,,,,,,,,,,,,,,2,190,2020-11-12_11h23.15.717,tareaTDv3,2020.2.5,Win32,60,,,right,1.0,1.969235,0.0,84.0,84.0,6.0,1.0,10000.0,0.0,40000.0,10.0,,
,,,,,,,,,,,,,,,,,,,,,,,2,190,2020-11-12_11h23.15.717,tareaTDv3,2020.2.5,Win32,60,,,left,0.0,1.203475,0.0,85.0,85.0,26.0,1.0,10000.0,0.0,39000.0,150.0,,
,,,,,,,,,,,,,,,,,,,,,,,2,190,2020-11-12_11h23.15.717,tareaTDv3,2020.2.5,Win32,60,,,right,1.0,2.830895,0.0,86.0,86.0,44.0,1.0,5000.0,0.0,150000.0,30.0,,
,,,,,,,,,,,,,,,,,,,,,,,2,190,2020-11-12_11h23.15.717,tareaTDv3,2020.2.5,Win32,60,,,left,1.0,0.984475,0.0,87.0,87.0,14.0,1.0,10000.0,0.0,150000.0,30.0,,
,,,,,,,,,,,,,,,,,,,,,,,2,190,2020-11-12_11h23.15.717,tareaTDv3,2020.2.5,Win32,60,,,right,1.0,3.26792,0.0,88.0,88.0,79.0,1.0,25000.0,0.0,150000.0,61.0,,
,,,,,,,,,,,,,,,,,,,,,,,2,190,2020-11-12_11h23.15.717,tareaTDv3,2020.2.5,Win32,60,,,left,1.0,1.633285,0.0,89.0,89.0,43.0,1.0,5000.0,0.0,106000.0,29.0,,
,,,,,,,,,,,,,,,,,,,,,,,2,190,2020-11-12_11h23.15.717,tareaTDv3,2020.2.5,Win32,60,,,,,,,,,,,,,,,right,1.7671
