key1.keys,key1.rt,key2.keys,key2.rt,key2_2.keys,key2_2.rt,key2_3.keys,key2_3.rt,key3.keys,key3.rt,key4.keys,key4.rt,respP.keys,respP.corr,respP.rt,Practice.thisRepN,Practice.thisTrialN,Practice.thisN,Practice.thisIndex,Practice.ran,ssAmount,llAmount,llDelay,session,participant,date,expName,psychopyVersion,OS,frameRate,key5.keys,key5.rt,respT.keys,respT.corr,respT.rt,trials.thisRepN,trials.thisTrialN,trials.thisN,trials.thisIndex,trials.ran,ss_am,ss_del,ll_am,ll_del,key_resp_4.keys,key_resp_4.rt
space,214.51766,space,5.07882,space,129.437175,space,4.284935,right,8.631565,space,1.73482,right,1.0,9.122615,0.0,0.0,0.0,0.0,1.0,10000.0,109000.0,9.0,2,216,2020-11-12_11h21.25.853,tareaTDv3,2020.2.5,Win32,60,,,,,,,,,,,,,,,,
,,,,,,,,,,,,left,0.0,3.71126,0.0,1.0,1.0,1.0,1.0,25000.0,35000.0,150.0,2,216,2020-11-12_11h21.25.853,tareaTDv3,2020.2.5,Win32,60,,,,,,,,,,,,,,,,
,,,,,,,,,,,,left,1.0,10.504885,0.0,2.0,2.0,2.0,1.0,10000.0,19000.0,89.0,2,216,2020-11-12_11h21.25.853,tareaTDv3,2020.2.5,Win32,60,,,,,,,,,,,,,,,,
,,,,,,,,,,,,,,,,,,,,,,,2,216,2020-11-12_11h21.25.853,tareaTDv3,2020.2.5,Win32,60,g,11.12468,left,1.0,4.51829,0.0,0.0,0.0,63.0,1.0,25000.0,0.0,125000.0,4.0,,
,,,,,,,,,,,,,,,,,,,,,,,2,216,2020-11-12_11h21.25.853,tareaTDv3,2020.2.5,Win32,60,,,right,0.0,18.87086,0.0,1.0,1.0,17.0,1.0,10000.0,0.0,60000.0,60.0,,
,,,,,,,,,,,,,,,,,,,,,,,2,216,2020-11-12_11h21.25.853,tareaTDv3,2020.2.5,Win32,60,,,left,1.0,3.69159,0.0,2.0,2.0,73.0,1.0,25000.0,0.0,125000.0,31.0,,
,,,,,,,,,,,,,,,,,,,,,,,2,216,2020-11-12_11h21.25.853,tareaTDv3,2020.2.5,Win32,60,,,left,1.0,2.76029,0.0,3.0,3.0,43.0,1.0,5000.0,0.0,106000.0,29.0,,
,,,,,,,,,,,,,,,,,,,,,,,2,216,2020-11-12_11h21.25.853,tareaTDv3,2020.2.5,Win32,60,,,left,1.0,3.420385,0.0,4.0,4.0,53.0,1.0,5000.0,0.0,104000.0,90.0,,
,,,,,,,,,,,,,,,,,,,,,,,2,216,2020-11-12_11h21.25.853,tareaTDv3,2020.2.5,Win32,60,,,left,1.0,7.33683,0.0,5.0,5.0,58.0,1.0,5000.0,0.0,106000.0,152.0,,
,,,,,,,,,,,,,,,,,,,,,,,2,216,2020-11-12_11h21.25.853,tareaTDv3,2020.2.5,Win32,60,,,left,1.0,3.32117,0.0,6.0,6.0,3.0,1.0,10000.0,0.0,109000.0,5.0,,
,,,,,,,,,,,,,,,,,,,,,,,2,216,2020-11-12_11h21.25.853,tareaTDv3,2020.2.5,Win32,60,,,right,1.0,8.91956,0.0,7.0,7.0,37.0,1.0,5000.0,0.0,56000.0,9.0,,
,,,,,,,,,,,,,,,,,,,,,,,2,216,2020-11-12_11h21.25.853,tareaTDv3,2020.2.5,Win32,60,,,left,0.0,14.50893,0.0,8.0,8.0,55.0,1.0,5000.0,0.0,14000.0,149.0,,
,,,,,,,,,,,,,,,,,,,,,,,2,216,2020-11-12_11h21.25.853,tareaTDv3,2020.2.5,Win32,60,,,left,1.0,2.67293,0.0,9.0,9.0,33.0,1.0,5000.0,0.0,104000.0,5.0,,
,,,,,,,,,,,,,,,,,,,,,,,2,216,2020-11-12_11h21.25.853,tareaTDv3,2020.2.5,Win32,60,,,,0.0,,0.0,10.0,10.0,26.0,1.0,10000.0,0.0,39000.0,150.0,,
,,,,,,,,,,,,,,,,,,,,,,,2,216,2020-11-12_11h21.25.853,tareaTDv3,2020.2.5,Win32,60,,,left,1.0,1.946135,0.0,11.0,11.0,2.0,1.0,10000.0,0.0,61000.0,4.0,,
,,,,,,,,,,,,,,,,,,,,,,,2,216,2020-11-12_11h21.25.853,tareaTDv3,2020.2.5,Win32,60,,,right,1.0,5.042525,0.0,12.0,12.0,15.0,1.0,10000.0,0.0,20000.0,59.0,,
,,,,,,,,,,,,,,,,,,,,,,,2,216,2020-11-12_11h21.25.853,tareaTDv3,2020.2.5,Win32,60,,,right,1.0,3.00346,0.0,13.0,13.0,79.0,1.0,25000.0,0.0,150000.0,61.0,,
,,,,,,,,,,,,,,,,,,,,,,,2,216,2020-11-12_11h21.25.853,tareaTDv3,2020.2.5,Win32,60,,,left,1.0,2.41772,0.0,14.0,14.0,4.0,1.0,10000.0,0.0,150000.0,5.0,,
,,,,,,,,,,,,,,,,,,,,,,,2,216,2020-11-12_11h21.25.853,tareaTDv3,2020.2.5,Win32,60,,,left,1.0,2.017585,0.0,15.0,15.0,40.0,1.0,5000.0,0.0,14000.0,31.0,,
,,,,,,,,,,,,,,,,,,,,,,,2,216,2020-11-12_11h21.25.853,tareaTDv3,2020.2.5,Win32,60,,,right,1.0,1.71872,0.0,16.0,16.0,78.0,1.0,25000.0,0.0,125000.0,59.0,,
,,,,,,,,,,,,,,,,,,,,,,,2,216,2020-11-12_11h21.25.853,tareaTDv3,2020.2.5,Win32,60,,,left,0.0,2.152345,0.0,17.0,17.0,77.0,1.0,25000.0,0.0,75000.0,59.0,,
,,,,,,,,,,,,,,,,,,,,,,,2,216,2020-11-12_11h21.25.853,tareaTDv3,2020.2.5,Win32,60,,,left,1.0,5.120805,0.0,18.0,18.0,14.0,1.0,10000.0,0.0,150000.0,30.0,,
,,,,,,,,,,,,,,,,,,,,,,,2,216,2020-11-12_11h21.25.853,tareaTDv3,2020.2.5,Win32,60,,,right,1.0,3.377135,0.0,19.0,19.0,42.0,1.0,5000.0,0.0,56000.0,29.0,,
,,,,,,,,,,,,,,,,,,,,,,,2,216,2020-11-12_11h21.25.853,tareaTDv3,2020.2.5,Win32,60,,,left,1.0,2.72681,0.0,20.0,20.0,32.0,1.0,5000.0,0.0,54000.0,5.0,,
,,,,,,,,,,,,,,,,,,,,,,,2,216,2020-11-12_11h21.25.853,tareaTDv3,2020.2.5,Win32,60,,,left,1.0,1.718585,0.0,21.0,21.0,31.0,1.0,5000.0,0.0,35000.0,6.0,,
,,,,,,,,,,,,,,,,,,,,,,,2,216,2020-11-12_11h21.25.853,tareaTDv3,2020.2.5,Win32,60,,,right,0.0,2.233595,0.0,22.0,22.0,76.0,1.0,25000.0,0.0,55000.0,60.0,,
,,,,,,,,,,,,,,,,,,,,,,,2,216,2020-11-12_11h21.25.853,tareaTDv3,2020.2.5,Win32,60,,,right,0.0,4.383135,0.0,23.0,23.0,83.0,1.0,25000.0,0.0,125000.0,89.0,,
,,,,,,,,,,,,,,,,,,,,,,,2,216,2020-11-12_11h21.25.853,tareaTDv3,2020.2.5,Win32,60,,,left,0.0,5.291425,0.0,24.0,24.0,25.0,1.0,10000.0,0.0,10000.0,150.0,,
,,,,,,,,,,,,,,,,,,,,,,,2,216,2020-11-12_11h21.25.853,tareaTDv3,2020.2.5,Win32,60,,,right,1.0,4.90557,0.0,25.0,25.0,39.0,1.0,5000.0,0.0,149000.0,10.0,,
,,,,,,,,,,,,,,,,,,,,,,,2,216,2020-11-12_11h21.25.853,tareaTDv3,2020.2.5,Win32,60,,,left,1.0,6.69989,0.0,26.0,26.0,46.0,1.0,5000.0,0.0,36000.0,61.0,,
,,,,,,,,,,,,,,,,,,,,,,,2,216,2020-11-12_11h21.25.853,tareaTDv3,2020.2.5,Win32,60,,,left,0.0,4.167805,0.0,27.0,27.0,87.0,1.0,25000.0,0.0,75000.0,151.0,,
,,,,,,,,,,,,,,,,,,,,,,,2,216,2020-11-12_11h21.25.853,tareaTDv3,2020.2.5,Win32,60,,,left,1.0,1.88623,0.0,28.0,28.0,66.0,1.0,25000.0,0.0,55000.0,11.0,,
,,,,,,,,,,,,,,,,,,,,,,,2,216,2020-11-12_11h21.25.853,tareaTDv3,2020.2.5,Win32,60,,,right,1.0,4.324335,0.0,29.0,29.0,61.0,1.0,25000.0,0.0,55000.0,6.0,,
,,,,,,,,,,,,,,,,,,,,,,,2,216,2020-11-12_11h21.25.853,tareaTDv3,2020.2.5,Win32,60,,,left,1.0,2.2346,0.0,30.0,30.0,6.0,1.0,10000.0,0.0,40000.0,10.0,,
,,,,,,,,,,,,,,,,,,,,,,,2,216,2020-11-12_11h21.25.853,tareaTDv3,2020.2.5,Win32,60,,,left,1.0,6.72208,0.0,31.0,31.0,23.0,1.0,10000.0,0.0,110000.0,90.0,,
,,,,,,,,,,,,,,,,,,,,,,,2,216,2020-11-12_11h21.25.853,tareaTDv3,2020.2.5,Win32,60,,,left,1.0,3.28595,0.0,32.0,32.0,41.0,1.0,5000.0,0.0,35000.0,31.0,,
,,,,,,,,,,,,,,,,,,,,,,,2,216,2020-11-12_11h21.25.853,tareaTDv3,2020.2.5,Win32,60,,,right,1.0,3.30849,0.0,33.0,33.0,67.0,1.0,25000.0,0.0,75000.0,10.0,,
,,,,,,,,,,,,,,,,,,,,,,,2,216,2020-11-12_11h21.25.853,tareaTDv3,2020.2.5,Win32,60,,,right,0.0,2.40858,0.0,34.0,34.0,82.0,1.0,25000.0,0.0,75000.0,90.0,,
,,,,,,,,,,,,,,,,,,,,,,,2,216,2020-11-12_11h21.25.853,tareaTDv3,2020.2.5,Win32,60,,,left,1.0,3.45453,0.0,35.0,35.0,0.0,1.0,10000.0,0.0,20000.0,5.0,,
,,,,,,,,,,,,,,,,,,,,,,,2,216,2020-11-12_11h21.25.853,tareaTDv3,2020.2.5,Win32,60,,,left,0.0,3.24069,0.0,36.0,36.0,80.0,1.0,25000.0,0.0,35000.0,90.0,,
,,,,,,,,,,,,,,,,,,,,,,,2,216,2020-11-12_11h21.25.853,tareaTDv3,2020.2.5,Win32,60,,,right,1.0,3.13354,0.0,37.0,37.0,48.0,1.0,5000.0,0.0,105000.0,60.0,,
,,,,,,,,,,,,,,,,,,,,,,,2,216,2020-11-12_11h21.25.853,tareaTDv3,2020.2.5,Win32,60,,,left,1.0,1.867055,0.0,38.0,38.0,38.0,1.0,5000.0,0.0,104000.0,10.0,,
,,,,,,,,,,,,,,,,,,,,,,,2,216,2020-11-12_11h21.25.853,tareaTDv3,2020.2.5,Win32,60,,,left,1.0,2.604135,0.0,39.0,39.0,11.0,1.0,10000.0,0.0,39000.0,29.0,,
,,,,,,,,,,,,,,,,,,,,,,,2,216,2020-11-12_11h21.25.853,tareaTDv3,2020.2.5,Win32,60,,,right,1.0,2.601915,0.0,40.0,40.0,64.0,1.0,25000.0,0.0,150000.0,4.0,,
,,,,,,,,,,,,,,,,,,,,,,,2,216,2020-11-12_11h21.25.853,tareaTDv3,2020.2.5,Win32,60,,,right,1.0,4.552395,0.0,41.0,41.0,72.0,1.0,25000.0,0.0,75000.0,31.0,,
,,,,,,,,,,,,,,,,,,,,,,,2,216,2020-11-12_11h21.25.853,tareaTDv3,2020.2.5,Win32,60,,,left,1.0,2.2764,0.0,42.0,42.0,5.0,1.0,10000.0,0.0,19000.0,11.0,,
,,,,,,,,,,,,,,,,,,,,,,,2,216,2020-11-12_11h21.25.853,tareaTDv3,2020.2.5,Win32,60,,,right,1.0,3.011935,0.0,43.0,43.0,12.0,1.0,10000.0,0.0,60000.0,29.0,,
,,,,,,,,,,,,,,,,,,,,,,,2,216,2020-11-12_11h21.25.853,tareaTDv3,2020.2.5,Win32,60,,,left,0.0,3.883065,0.0,44.0,44.0,50.0,1.0,5000.0,0.0,15000.0,91.0,,
,,,,,,,,,,,,,,,,,,,,,,,2,216,2020-11-12_11h21.25.853,tareaTDv3,2020.2.5,Win32,60,,,right,0.0,3.141195,0.0,45.0,45.0,86.0,1.0,25000.0,0.0,55000.0,151.0,,
,,,,,,,,,,,,,,,,,,,,,,,2,216,2020-11-12_11h21.25.853,tareaTDv3,2020.2.5,Win32,60,,,right,1.0,3.31868,0.0,46.0,46.0,36.0,1.0,5000.0,0.0,36000.0,9.0,,
,,,,,,,,,,,,,,,,,,,,,,,2,216,2020-11-12_11h21.25.853,tareaTDv3,2020.2.5,Win32,60,,,right,1.0,3.970085,0.0,47.0,47.0,74.0,1.0,25000.0,0.0,150000.0,29.0,,
,,,,,,,,,,,,,,,,,,,,,,,2,216,2020-11-12_11h21.25.853,tareaTDv3,2020.2.5,Win32,60,,,right,1.0,2.43647,0.0,48.0,48.0,54.0,1.0,5000.0,0.0,150000.0,90.0,,
,,,,,,,,,,,,,,,,,,,,,,,2,216,2020-11-12_11h21.25.853,tareaTDv3,2020.2.5,Win32,60,,,right,0.0,5.15577,0.0,49.0,49.0,24.0,1.0,10000.0,0.0,149000.0,89.0,,
,,,,,,,,,,,,,,,,,,,,,,,2,216,2020-11-12_11h21.25.853,tareaTDv3,2020.2.5,Win32,60,,,right,1.0,2.99411,0.0,50.0,50.0,59.0,1.0,5000.0,0.0,151000.0,150.0,,
,,,,,,,,,,,,,,,,,,,,,,,2,216,2020-11-12_11h21.25.853,tareaTDv3,2020.2.5,Win32,60,,,left,1.0,3.235305,0.0,51.0,51.0,19.0,1.0,10000.0,0.0,149000.0,61.0,,
,,,,,,,,,,,,,,,,,,,,,,,2,216,2020-11-12_11h21.25.853,tareaTDv3,2020.2.5,Win32,60,,,left,0.0,4.267865,0.0,52.0,52.0,57.0,1.0,5000.0,0.0,55000.0,151.0,,
,,,,,,,,,,,,,,,,,,,,,,,2,216,2020-11-12_11h21.25.853,tareaTDv3,2020.2.5,Win32,60,,,left,1.0,4.15163,0.0,53.0,53.0,56.0,1.0,5000.0,0.0,35000.0,150.0,,
,,,,,,,,,,,,,,,,,,,,,,,2,216,2020-11-12_11h21.25.853,tareaTDv3,2020.2.5,Win32,60,,,right,1.0,3.28549,0.0,54.0,54.0,45.0,1.0,5000.0,0.0,15000.0,61.0,,
,,,,,,,,,,,,,,,,,,,,,,,2,216,2020-11-12_11h21.25.853,tareaTDv3,2020.2.5,Win32,60,,,right,1.0,1.643535,0.0,55.0,55.0,49.0,1.0,5000.0,0.0,149000.0,59.0,,
,,,,,,,,,,,,,,,,,,,,,,,2,216,2020-11-12_11h21.25.853,tareaTDv3,2020.2.5,Win32,60,,,left,1.0,2.920275,0.0,56.0,56.0,89.0,1.0,25000.0,0.0,150000.0,150.0,,
,,,,,,,,,,,,,,,,,,,,,,,2,216,2020-11-12_11h21.25.853,tareaTDv3,2020.2.5,Win32,60,,,left,0.0,3.45952,0.0,57.0,57.0,27.0,1.0,10000.0,0.0,61000.0,150.0,,
,,,,,,,,,,,,,,,,,,,,,,,2,216,2020-11-12_11h21.25.853,tareaTDv3,2020.2.5,Win32,60,,,left,1.0,1.7271,0.0,58.0,58.0,35.0,1.0,5000.0,0.0,15000.0,11.0,,
,,,,,,,,,,,,,,,,,,,,,,,2,216,2020-11-12_11h21.25.853,tareaTDv3,2020.2.5,Win32,60,,,left,1.0,2.87152,0.0,59.0,59.0,69.0,1.0,25000.0,0.0,150000.0,9.0,,
,,,,,,,,,,,,,,,,,,,,,,,2,216,2020-11-12_11h21.25.853,tareaTDv3,2020.2.5,Win32,60,,,right,0.0,2.072825,0.0,60.0,60.0,85.0,1.0,25000.0,0.0,35000.0,150.0,,
,,,,,,,,,,,,,,,,,,,,,,,2,216,2020-11-12_11h21.25.853,tareaTDv3,2020.2.5,Win32,60,,,right,1.0,3.52056,0.0,61.0,61.0,65.0,1.0,25000.0,0.0,35000.0,11.0,,
,,,,,,,,,,,,,,,,,,,,,,,2,216,2020-11-12_11h21.25.853,tareaTDv3,2020.2.5,Win32,60,,,right,1.0,1.40305,0.0,62.0,62.0,1.0,1.0,10000.0,0.0,39000.0,6.0,,
,,,,,,,,,,,,,,,,,,,,,,,2,216,2020-11-12_11h21.25.853,tareaTDv3,2020.2.5,Win32,60,,,right,0.0,3.48785,0.0,63.0,63.0,18.0,1.0,10000.0,0.0,110000.0,60.0,,
,,,,,,,,,,,,,,,,,,,,,,,2,216,2020-11-12_11h21.25.853,tareaTDv3,2020.2.5,Win32,60,,,right,0.0,4.682555,0.0,64.0,64.0,21.0,1.0,10000.0,0.0,40000.0,91.0,,
,,,,,,,,,,,,,,,,,,,,,,,2,216,2020-11-12_11h21.25.853,tareaTDv3,2020.2.5,Win32,60,,,right,1.0,3.551565,0.0,65.0,65.0,44.0,1.0,5000.0,0.0,150000.0,30.0,,
,,,,,,,,,,,,,,,,,,,,,,,2,216,2020-11-12_11h21.25.853,tareaTDv3,2020.2.5,Win32,60,,,left,1.0,1.799935,0.0,66.0,66.0,34.0,1.0,5000.0,0.0,151000.0,4.0,,
,,,,,,,,,,,,,,,,,,,,,,,2,216,2020-11-12_11h21.25.853,tareaTDv3,2020.2.5,Win32,60,,,left,1.0,2.94789,0.0,67.0,67.0,88.0,1.0,25000.0,0.0,125000.0,149.0,,
,,,,,,,,,,,,,,,,,,,,,,,2,216,2020-11-12_11h21.25.853,tareaTDv3,2020.2.5,Win32,60,,,right,1.0,4.83952,0.0,68.0,68.0,84.0,1.0,25000.0,0.0,150000.0,89.0,,
,,,,,,,,,,,,,,,,,,,,,,,2,216,2020-11-12_11h21.25.853,tareaTDv3,2020.2.5,Win32,60,,,left,0.0,4.50826,0.0,69.0,69.0,52.0,1.0,5000.0,0.0,56000.0,89.0,,
,,,,,,,,,,,,,,,,,,,,,,,2,216,2020-11-12_11h21.25.853,tareaTDv3,2020.2.5,Win32,60,,,right,1.0,1.770725,0.0,70.0,70.0,68.0,1.0,25000.0,0.0,125000.0,9.0,,
,,,,,,,,,,,,,,,,,,,,,,,2,216,2020-11-12_11h21.25.853,tareaTDv3,2020.2.5,Win32,60,,,right,1.0,6.49465,0.0,71.0,71.0,47.0,1.0,5000.0,0.0,56000.0,60.0,,
,,,,,,,,,,,,,,,,,,,,,,,2,216,2020-11-12_11h21.25.853,tareaTDv3,2020.2.5,Win32,60,,,left,1.0,5.15967,0.0,72.0,72.0,75.0,1.0,25000.0,0.0,35000.0,60.0,,
,,,,,,,,,,,,,,,,,,,,,,,2,216,2020-11-12_11h21.25.853,tareaTDv3,2020.2.5,Win32,60,,,left,1.0,4.8198,0.0,73.0,73.0,29.0,1.0,10000.0,0.0,151000.0,151.0,,
,,,,,,,,,,,,,,,,,,,,,,,2,216,2020-11-12_11h21.25.853,tareaTDv3,2020.2.5,Win32,60,,,right,1.0,3.42175,0.0,74.0,74.0,10.0,1.0,10000.0,0.0,21000.0,31.0,,
,,,,,,,,,,,,,,,,,,,,,,,2,216,2020-11-12_11h21.25.853,tareaTDv3,2020.2.5,Win32,60,,,right,1.0,1.603885,0.0,75.0,75.0,30.0,1.0,5000.0,0.0,16000.0,4.0,,
,,,,,,,,,,,,,,,,,,,,,,,2,216,2020-11-12_11h21.25.853,tareaTDv3,2020.2.5,Win32,60,,,left,1.0,2.23728,0.0,76.0,76.0,62.0,1.0,25000.0,0.0,75000.0,5.0,,
,,,,,,,,,,,,,,,,,,,,,,,2,216,2020-11-12_11h21.25.853,tareaTDv3,2020.2.5,Win32,60,,,left,1.0,1.784975,0.0,77.0,77.0,60.0,1.0,25000.0,0.0,35000.0,5.0,,
,,,,,,,,,,,,,,,,,,,,,,,2,216,2020-11-12_11h21.25.853,tareaTDv3,2020.2.5,Win32,60,,,left,1.0,1.4609,0.0,78.0,78.0,8.0,1.0,10000.0,0.0,111000.0,10.0,,
,,,,,,,,,,,,,,,,,,,,,,,2,216,2020-11-12_11h21.25.853,tareaTDv3,2020.2.5,Win32,60,,,left,1.0,2.699635,0.0,79.0,79.0,71.0,1.0,25000.0,0.0,55000.0,30.0,,
,,,,,,,,,,,,,,,,,,,,,,,2,216,2020-11-12_11h21.25.853,tareaTDv3,2020.2.5,Win32,60,,,right,1.0,2.259345,0.0,80.0,80.0,16.0,1.0,10000.0,0.0,39000.0,59.0,,
,,,,,,,,,,,,,,,,,,,,,,,2,216,2020-11-12_11h21.25.853,tareaTDv3,2020.2.5,Win32,60,,,right,1.0,3.78522,0.0,81.0,81.0,13.0,1.0,10000.0,0.0,111000.0,30.0,,
,,,,,,,,,,,,,,,,,,,,,,,2,216,2020-11-12_11h21.25.853,tareaTDv3,2020.2.5,Win32,60,,,left,1.0,2.06791,0.0,82.0,82.0,9.0,1.0,10000.0,0.0,151000.0,11.0,,
,,,,,,,,,,,,,,,,,,,,,,,2,216,2020-11-12_11h21.25.853,tareaTDv3,2020.2.5,Win32,60,,,left,1.0,3.717745,0.0,83.0,83.0,20.0,1.0,10000.0,0.0,20000.0,90.0,,
,,,,,,,,,,,,,,,,,,,,,,,2,216,2020-11-12_11h21.25.853,tareaTDv3,2020.2.5,Win32,60,,,right,1.0,2.40352,0.0,84.0,84.0,22.0,1.0,10000.0,0.0,61000.0,89.0,,
,,,,,,,,,,,,,,,,,,,,,,,2,216,2020-11-12_11h21.25.853,tareaTDv3,2020.2.5,Win32,60,,,left,0.0,5.6877,0.0,85.0,85.0,51.0,1.0,5000.0,0.0,35000.0,89.0,,
,,,,,,,,,,,,,,,,,,,,,,,2,216,2020-11-12_11h21.25.853,tareaTDv3,2020.2.5,Win32,60,,,left,1.0,1.55171,0.0,86.0,86.0,7.0,1.0,10000.0,0.0,59000.0,9.0,,
,,,,,,,,,,,,,,,,,,,,,,,2,216,2020-11-12_11h21.25.853,tareaTDv3,2020.2.5,Win32,60,,,right,0.0,2.476455,0.0,87.0,87.0,28.0,1.0,10000.0,0.0,109000.0,149.0,,
,,,,,,,,,,,,,,,,,,,,,,,2,216,2020-11-12_11h21.25.853,tareaTDv3,2020.2.5,Win32,60,,,left,0.0,3.80402,0.0,88.0,88.0,81.0,1.0,25000.0,0.0,55000.0,90.0,,
,,,,,,,,,,,,,,,,,,,,,,,2,216,2020-11-12_11h21.25.853,tareaTDv3,2020.2.5,Win32,60,,,left,1.0,3.21555,0.0,89.0,89.0,70.0,1.0,25000.0,0.0,35000.0,30.0,,
,,,,,,,,,,,,,,,,,,,,,,,2,216,2020-11-12_11h21.25.853,tareaTDv3,2020.2.5,Win32,60,,,,,,,,,,,,,,,space,1.660805
