key1.keys,key1.rt,key2.keys,key2.rt,key2_2.keys,key2_2.rt,key2_3.keys,key2_3.rt,key3.keys,key3.rt,key4.keys,key4.rt,respP.keys,respP.corr,respP.rt,Practice.thisRepN,Practice.thisTrialN,Practice.thisN,Practice.thisIndex,Practice.ran,ssAmount,llAmount,llDelay,session,participant,date,expName,psychopyVersion,OS,frameRate,key5.keys,key5.rt,respT.keys,respT.corr,respT.rt,trials.thisRepN,trials.thisTrialN,trials.thisN,trials.thisIndex,trials.ran,ss_am,ss_del,ll_am,ll_del
space,4.1703,space,27.5815,space,18.3137,space,6.6184,right,3.4679,space,3.7863,right,0.0,9.4676,0.0,0.0,0.0,1.0,1.0,25000.0,35000.0,150.0,2,225,2022-03-05_07h33.12.279,tareaTDv3,2020.2.5,Win32,60,,,,,,,,,,,,,,
,,,,,,,,,,,,right,1.0,6.0025,0.0,1.0,1.0,0.0,1.0,10000.0,109000.0,9.0,2,225,2022-03-05_07h33.12.279,tareaTDv3,2020.2.5,Win32,60,,,,,,,,,,,,,,
,,,,,,,,,,,,left,1.0,6.0053,0.0,2.0,2.0,2.0,1.0,10000.0,19000.0,89.0,2,225,2022-03-05_07h33.12.279,tareaTDv3,2020.2.5,Win32,60,,,,,,,,,,,,,,
,,,,,,,,,,,,,,,,,,,,,,,2,225,2022-03-05_07h33.12.279,tareaTDv3,2020.2.5,Win32,60,g,21.5431,left,1.0,7.5401,0.0,0.0,0.0,85.0,1.0,25000.0,0.0,35000.0,150.0
,,,,,,,,,,,,,,,,,,,,,,,2,225,2022-03-05_07h33.12.279,tareaTDv3,2020.2.5,Win32,60,,,left,1.0,2.5375,0.0,1.0,1.0,58.0,1.0,5000.0,0.0,106000.0,152.0
,,,,,,,,,,,,,,,,,,,,,,,2,225,2022-03-05_07h33.12.279,tareaTDv3,2020.2.5,Win32,60,,,right,1.0,3.867,0.0,2.0,2.0,15.0,1.0,10000.0,0.0,20000.0,59.0
,,,,,,,,,,,,,,,,,,,,,,,2,225,2022-03-05_07h33.12.279,tareaTDv3,2020.2.5,Win32,60,,,left,1.0,9.4546,0.0,3.0,3.0,65.0,1.0,25000.0,0.0,35000.0,11.0
,,,,,,,,,,,,,,,,,,,,,,,2,225,2022-03-05_07h33.12.279,tareaTDv3,2020.2.5,Win32,60,,,left,1.0,3.8508,0.0,4.0,4.0,18.0,1.0,10000.0,0.0,110000.0,60.0
,,,,,,,,,,,,,,,,,,,,,,,2,225,2022-03-05_07h33.12.279,tareaTDv3,2020.2.5,Win32,60,,,left,1.0,1.76,0.0,5.0,5.0,72.0,1.0,25000.0,0.0,75000.0,31.0
,,,,,,,,,,,,,,,,,,,,,,,2,225,2022-03-05_07h33.12.279,tareaTDv3,2020.2.5,Win32,60,,,left,1.0,2.8767,0.0,6.0,6.0,4.0,1.0,10000.0,0.0,150000.0,5.0
,,,,,,,,,,,,,,,,,,,,,,,2,225,2022-03-05_07h33.12.279,tareaTDv3,2020.2.5,Win32,60,,,left,1.0,10.8613,0.0,7.0,7.0,64.0,1.0,25000.0,0.0,150000.0,4.0
,,,,,,,,,,,,,,,,,,,,,,,2,225,2022-03-05_07h33.12.279,tareaTDv3,2020.2.5,Win32,60,,,right,1.0,1.9343,0.0,8.0,8.0,43.0,1.0,5000.0,0.0,106000.0,29.0
,,,,,,,,,,,,,,,,,,,,,,,2,225,2022-03-05_07h33.12.279,tareaTDv3,2020.2.5,Win32,60,,,right,1.0,1.891,0.0,9.0,9.0,47.0,1.0,5000.0,0.0,56000.0,60.0
,,,,,,,,,,,,,,,,,,,,,,,2,225,2022-03-05_07h33.12.279,tareaTDv3,2020.2.5,Win32,60,,,left,1.0,2.6671,0.0,10.0,10.0,40.0,1.0,5000.0,0.0,14000.0,31.0
,,,,,,,,,,,,,,,,,,,,,,,2,225,2022-03-05_07h33.12.279,tareaTDv3,2020.2.5,Win32,60,,,left,0.0,3.1221,0.0,11.0,11.0,20.0,1.0,10000.0,0.0,20000.0,90.0
,,,,,,,,,,,,,,,,,,,,,,,2,225,2022-03-05_07h33.12.279,tareaTDv3,2020.2.5,Win32,60,,,left,1.0,3.5599,0.0,12.0,12.0,49.0,1.0,5000.0,0.0,149000.0,59.0
,,,,,,,,,,,,,,,,,,,,,,,2,225,2022-03-05_07h33.12.279,tareaTDv3,2020.2.5,Win32,60,,,right,1.0,1.8048,0.0,13.0,13.0,61.0,1.0,25000.0,0.0,55000.0,6.0
,,,,,,,,,,,,,,,,,,,,,,,2,225,2022-03-05_07h33.12.279,tareaTDv3,2020.2.5,Win32,60,,,right,1.0,2.3911,0.0,14.0,14.0,41.0,1.0,5000.0,0.0,35000.0,31.0
,,,,,,,,,,,,,,,,,,,,,,,2,225,2022-03-05_07h33.12.279,tareaTDv3,2020.2.5,Win32,60,,,right,1.0,7.4353,0.0,15.0,15.0,50.0,1.0,5000.0,0.0,15000.0,91.0
,,,,,,,,,,,,,,,,,,,,,,,2,225,2022-03-05_07h33.12.279,tareaTDv3,2020.2.5,Win32,60,,,left,1.0,1.204,0.0,16.0,16.0,59.0,1.0,5000.0,0.0,151000.0,150.0
,,,,,,,,,,,,,,,,,,,,,,,2,225,2022-03-05_07h33.12.279,tareaTDv3,2020.2.5,Win32,60,,,left,1.0,1.7678,0.0,17.0,17.0,74.0,1.0,25000.0,0.0,150000.0,29.0
,,,,,,,,,,,,,,,,,,,,,,,2,225,2022-03-05_07h33.12.279,tareaTDv3,2020.2.5,Win32,60,,,left,1.0,0.691,0.0,18.0,18.0,3.0,1.0,10000.0,0.0,109000.0,5.0
,,,,,,,,,,,,,,,,,,,,,,,2,225,2022-03-05_07h33.12.279,tareaTDv3,2020.2.5,Win32,60,,,left,1.0,2.2023,0.0,19.0,19.0,0.0,1.0,10000.0,0.0,20000.0,5.0
,,,,,,,,,,,,,,,,,,,,,,,2,225,2022-03-05_07h33.12.279,tareaTDv3,2020.2.5,Win32,60,,,right,1.0,3.5572,0.0,20.0,20.0,57.0,1.0,5000.0,0.0,55000.0,151.0
,,,,,,,,,,,,,,,,,,,,,,,2,225,2022-03-05_07h33.12.279,tareaTDv3,2020.2.5,Win32,60,,,right,1.0,3.5775,0.0,21.0,21.0,56.0,1.0,5000.0,0.0,35000.0,150.0
,,,,,,,,,,,,,,,,,,,,,,,2,225,2022-03-05_07h33.12.279,tareaTDv3,2020.2.5,Win32,60,,,right,1.0,4.1416,0.0,22.0,22.0,12.0,1.0,10000.0,0.0,60000.0,29.0
,,,,,,,,,,,,,,,,,,,,,,,2,225,2022-03-05_07h33.12.279,tareaTDv3,2020.2.5,Win32,60,,,left,1.0,2.5381,0.0,23.0,23.0,66.0,1.0,25000.0,0.0,55000.0,11.0
,,,,,,,,,,,,,,,,,,,,,,,2,225,2022-03-05_07h33.12.279,tareaTDv3,2020.2.5,Win32,60,,,right,0.0,5.6083,0.0,24.0,24.0,55.0,1.0,5000.0,0.0,14000.0,149.0
,,,,,,,,,,,,,,,,,,,,,,,2,225,2022-03-05_07h33.12.279,tareaTDv3,2020.2.5,Win32,60,,,right,1.0,1.1513,0.0,25.0,25.0,77.0,1.0,25000.0,0.0,75000.0,59.0
,,,,,,,,,,,,,,,,,,,,,,,2,225,2022-03-05_07h33.12.279,tareaTDv3,2020.2.5,Win32,60,,,right,1.0,1.1518,0.0,26.0,26.0,14.0,1.0,10000.0,0.0,150000.0,30.0
,,,,,,,,,,,,,,,,,,,,,,,2,225,2022-03-05_07h33.12.279,tareaTDv3,2020.2.5,Win32,60,,,right,1.0,1.9402,0.0,27.0,27.0,48.0,1.0,5000.0,0.0,105000.0,60.0
,,,,,,,,,,,,,,,,,,,,,,,2,225,2022-03-05_07h33.12.279,tareaTDv3,2020.2.5,Win32,60,,,left,1.0,2.0255,0.0,28.0,28.0,68.0,1.0,25000.0,0.0,125000.0,9.0
,,,,,,,,,,,,,,,,,,,,,,,2,225,2022-03-05_07h33.12.279,tareaTDv3,2020.2.5,Win32,60,,,right,1.0,5.6916,0.0,29.0,29.0,84.0,1.0,25000.0,0.0,150000.0,89.0
,,,,,,,,,,,,,,,,,,,,,,,2,225,2022-03-05_07h33.12.279,tareaTDv3,2020.2.5,Win32,60,,,left,1.0,2.9225,0.0,30.0,30.0,42.0,1.0,5000.0,0.0,56000.0,29.0
,,,,,,,,,,,,,,,,,,,,,,,2,225,2022-03-05_07h33.12.279,tareaTDv3,2020.2.5,Win32,60,,,right,1.0,1.1174,0.0,31.0,31.0,39.0,1.0,5000.0,0.0,149000.0,10.0
,,,,,,,,,,,,,,,,,,,,,,,2,225,2022-03-05_07h33.12.279,tareaTDv3,2020.2.5,Win32,60,,,left,1.0,4.0005,0.0,32.0,32.0,46.0,1.0,5000.0,0.0,36000.0,61.0
,,,,,,,,,,,,,,,,,,,,,,,2,225,2022-03-05_07h33.12.279,tareaTDv3,2020.2.5,Win32,60,,,right,1.0,3.1859,0.0,33.0,33.0,6.0,1.0,10000.0,0.0,40000.0,10.0
,,,,,,,,,,,,,,,,,,,,,,,2,225,2022-03-05_07h33.12.279,tareaTDv3,2020.2.5,Win32,60,,,right,1.0,1.6692,0.0,34.0,34.0,1.0,1.0,10000.0,0.0,39000.0,6.0
,,,,,,,,,,,,,,,,,,,,,,,2,225,2022-03-05_07h33.12.279,tareaTDv3,2020.2.5,Win32,60,,,left,1.0,1.6206,0.0,35.0,35.0,54.0,1.0,5000.0,0.0,150000.0,90.0
,,,,,,,,,,,,,,,,,,,,,,,2,225,2022-03-05_07h33.12.279,tareaTDv3,2020.2.5,Win32,60,,,right,1.0,3.303,0.0,36.0,36.0,29.0,1.0,10000.0,0.0,151000.0,151.0
,,,,,,,,,,,,,,,,,,,,,,,2,225,2022-03-05_07h33.12.279,tareaTDv3,2020.2.5,Win32,60,,,right,1.0,2.7256,0.0,37.0,37.0,21.0,1.0,10000.0,0.0,40000.0,91.0
,,,,,,,,,,,,,,,,,,,,,,,2,225,2022-03-05_07h33.12.279,tareaTDv3,2020.2.5,Win32,60,,,right,1.0,2.5394,0.0,38.0,38.0,37.0,1.0,5000.0,0.0,56000.0,9.0
,,,,,,,,,,,,,,,,,,,,,,,2,225,2022-03-05_07h33.12.279,tareaTDv3,2020.2.5,Win32,60,,,left,1.0,2.4887,0.0,39.0,39.0,27.0,1.0,10000.0,0.0,61000.0,150.0
,,,,,,,,,,,,,,,,,,,,,,,2,225,2022-03-05_07h33.12.279,tareaTDv3,2020.2.5,Win32,60,,,left,1.0,2.36,0.0,40.0,40.0,38.0,1.0,5000.0,0.0,104000.0,10.0
,,,,,,,,,,,,,,,,,,,,,,,2,225,2022-03-05_07h33.12.279,tareaTDv3,2020.2.5,Win32,60,,,right,1.0,0.8446,0.0,41.0,41.0,19.0,1.0,10000.0,0.0,149000.0,61.0
,,,,,,,,,,,,,,,,,,,,,,,2,225,2022-03-05_07h33.12.279,tareaTDv3,2020.2.5,Win32,60,,,right,1.0,2.3679,0.0,42.0,42.0,83.0,1.0,25000.0,0.0,125000.0,89.0
,,,,,,,,,,,,,,,,,,,,,,,2,225,2022-03-05_07h33.12.279,tareaTDv3,2020.2.5,Win32,60,,,left,1.0,1.8099,0.0,43.0,43.0,2.0,1.0,10000.0,0.0,61000.0,4.0
,,,,,,,,,,,,,,,,,,,,,,,2,225,2022-03-05_07h33.12.279,tareaTDv3,2020.2.5,Win32,60,,,right,1.0,2.4765,0.0,44.0,44.0,22.0,1.0,10000.0,0.0,61000.0,89.0
,,,,,,,,,,,,,,,,,,,,,,,2,225,2022-03-05_07h33.12.279,tareaTDv3,2020.2.5,Win32,60,,,right,1.0,4.5725,0.0,45.0,45.0,81.0,1.0,25000.0,0.0,55000.0,90.0
,,,,,,,,,,,,,,,,,,,,,,,2,225,2022-03-05_07h33.12.279,tareaTDv3,2020.2.5,Win32,60,,,left,1.0,1.2248,0.0,46.0,46.0,30.0,1.0,5000.0,0.0,16000.0,4.0
,,,,,,,,,,,,,,,,,,,,,,,2,225,2022-03-05_07h33.12.279,tareaTDv3,2020.2.5,Win32,60,,,right,1.0,2.5547,0.0,47.0,47.0,9.0,1.0,10000.0,0.0,151000.0,11.0
,,,,,,,,,,,,,,,,,,,,,,,2,225,2022-03-05_07h33.12.279,tareaTDv3,2020.2.5,Win32,60,,,left,1.0,3.2393,0.0,48.0,48.0,5.0,1.0,10000.0,0.0,19000.0,11.0
,,,,,,,,,,,,,,,,,,,,,,,2,225,2022-03-05_07h33.12.279,tareaTDv3,2020.2.5,Win32,60,,,right,0.0,6.5528,0.0,49.0,49.0,25.0,1.0,10000.0,0.0,10000.0,150.0
,,,,,,,,,,,,,,,,,,,,,,,2,225,2022-03-05_07h33.12.279,tareaTDv3,2020.2.5,Win32,60,,,left,1.0,3.8175,0.0,50.0,50.0,82.0,1.0,25000.0,0.0,75000.0,90.0
,,,,,,,,,,,,,,,,,,,,,,,2,225,2022-03-05_07h33.12.279,tareaTDv3,2020.2.5,Win32,60,,,right,1.0,1.5033,0.0,51.0,51.0,62.0,1.0,25000.0,0.0,75000.0,5.0
,,,,,,,,,,,,,,,,,,,,,,,2,225,2022-03-05_07h33.12.279,tareaTDv3,2020.2.5,Win32,60,,,right,1.0,1.6056,0.0,52.0,52.0,70.0,1.0,25000.0,0.0,35000.0,30.0
,,,,,,,,,,,,,,,,,,,,,,,2,225,2022-03-05_07h33.12.279,tareaTDv3,2020.2.5,Win32,60,,,left,1.0,1.6566,0.0,53.0,53.0,34.0,1.0,5000.0,0.0,151000.0,4.0
,,,,,,,,,,,,,,,,,,,,,,,2,225,2022-03-05_07h33.12.279,tareaTDv3,2020.2.5,Win32,60,,,left,1.0,1.5173,0.0,54.0,54.0,52.0,1.0,5000.0,0.0,56000.0,89.0
,,,,,,,,,,,,,,,,,,,,,,,2,225,2022-03-05_07h33.12.279,tareaTDv3,2020.2.5,Win32,60,,,left,1.0,2.4505,0.0,55.0,55.0,44.0,1.0,5000.0,0.0,150000.0,30.0
,,,,,,,,,,,,,,,,,,,,,,,2,225,2022-03-05_07h33.12.279,tareaTDv3,2020.2.5,Win32,60,,,right,1.0,3.2836,0.0,56.0,56.0,86.0,1.0,25000.0,0.0,55000.0,151.0
,,,,,,,,,,,,,,,,,,,,,,,2,225,2022-03-05_07h33.12.279,tareaTDv3,2020.2.5,Win32,60,,,left,1.0,2.7842,0.0,57.0,57.0,35.0,1.0,5000.0,0.0,15000.0,11.0
,,,,,,,,,,,,,,,,,,,,,,,2,225,2022-03-05_07h33.12.279,tareaTDv3,2020.2.5,Win32,60,,,left,1.0,1.2838,0.0,58.0,58.0,78.0,1.0,25000.0,0.0,125000.0,59.0
,,,,,,,,,,,,,,,,,,,,,,,2,225,2022-03-05_07h33.12.279,tareaTDv3,2020.2.5,Win32,60,,,left,1.0,1.7504,0.0,59.0,59.0,71.0,1.0,25000.0,0.0,55000.0,30.0
,,,,,,,,,,,,,,,,,,,,,,,2,225,2022-03-05_07h33.12.279,tareaTDv3,2020.2.5,Win32,60,,,left,1.0,2.5582,0.0,60.0,60.0,28.0,1.0,10000.0,0.0,109000.0,149.0
,,,,,,,,,,,,,,,,,,,,,,,2,225,2022-03-05_07h33.12.279,tareaTDv3,2020.2.5,Win32,60,,,left,1.0,2.3343,0.0,61.0,61.0,88.0,1.0,25000.0,0.0,125000.0,149.0
,,,,,,,,,,,,,,,,,,,,,,,2,225,2022-03-05_07h33.12.279,tareaTDv3,2020.2.5,Win32,60,,,right,1.0,2.5451,0.0,62.0,62.0,11.0,1.0,10000.0,0.0,39000.0,29.0
,,,,,,,,,,,,,,,,,,,,,,,2,225,2022-03-05_07h33.12.279,tareaTDv3,2020.2.5,Win32,60,,,left,1.0,1.8542,0.0,63.0,63.0,24.0,1.0,10000.0,0.0,149000.0,89.0
,,,,,,,,,,,,,,,,,,,,,,,2,225,2022-03-05_07h33.12.279,tareaTDv3,2020.2.5,Win32,60,,,right,1.0,2.167,0.0,64.0,64.0,75.0,1.0,25000.0,0.0,35000.0,60.0
,,,,,,,,,,,,,,,,,,,,,,,2,225,2022-03-05_07h33.12.279,tareaTDv3,2020.2.5,Win32,60,,,right,1.0,2.3865,0.0,65.0,65.0,7.0,1.0,10000.0,0.0,59000.0,9.0
,,,,,,,,,,,,,,,,,,,,,,,2,225,2022-03-05_07h33.12.279,tareaTDv3,2020.2.5,Win32,60,,,left,1.0,1.4005,0.0,66.0,66.0,69.0,1.0,25000.0,0.0,150000.0,9.0
,,,,,,,,,,,,,,,,,,,,,,,2,225,2022-03-05_07h33.12.279,tareaTDv3,2020.2.5,Win32,60,,,right,1.0,4.8014,0.0,67.0,67.0,16.0,1.0,10000.0,0.0,39000.0,59.0
,,,,,,,,,,,,,,,,,,,,,,,2,225,2022-03-05_07h33.12.279,tareaTDv3,2020.2.5,Win32,60,,,right,1.0,1.1232,0.0,68.0,68.0,36.0,1.0,5000.0,0.0,36000.0,9.0
,,,,,,,,,,,,,,,,,,,,,,,2,225,2022-03-05_07h33.12.279,tareaTDv3,2020.2.5,Win32,60,,,right,1.0,3.2252,0.0,69.0,69.0,17.0,1.0,10000.0,0.0,60000.0,60.0
,,,,,,,,,,,,,,,,,,,,,,,2,225,2022-03-05_07h33.12.279,tareaTDv3,2020.2.5,Win32,60,,,left,1.0,2.3007,0.0,70.0,70.0,33.0,1.0,5000.0,0.0,104000.0,5.0
,,,,,,,,,,,,,,,,,,,,,,,2,225,2022-03-05_07h33.12.279,tareaTDv3,2020.2.5,Win32,60,,,right,1.0,2.0025,0.0,71.0,71.0,67.0,1.0,25000.0,0.0,75000.0,10.0
,,,,,,,,,,,,,,,,,,,,,,,2,225,2022-03-05_07h33.12.279,tareaTDv3,2020.2.5,Win32,60,,,right,1.0,1.7677,0.0,72.0,72.0,53.0,1.0,5000.0,0.0,104000.0,90.0
,,,,,,,,,,,,,,,,,,,,,,,2,225,2022-03-05_07h33.12.279,tareaTDv3,2020.2.5,Win32,60,,,right,1.0,3.7171,0.0,73.0,73.0,87.0,1.0,25000.0,0.0,75000.0,151.0
,,,,,,,,,,,,,,,,,,,,,,,2,225,2022-03-05_07h33.12.279,tareaTDv3,2020.2.5,Win32,60,,,left,1.0,2.8507,0.0,74.0,74.0,10.0,1.0,10000.0,0.0,21000.0,31.0
,,,,,,,,,,,,,,,,,,,,,,,2,225,2022-03-05_07h33.12.279,tareaTDv3,2020.2.5,Win32,60,,,left,1.0,2.1913,0.0,75.0,75.0,32.0,1.0,5000.0,0.0,54000.0,5.0
,,,,,,,,,,,,,,,,,,,,,,,2,225,2022-03-05_07h33.12.279,tareaTDv3,2020.2.5,Win32,60,,,left,1.0,1.7861,0.0,76.0,76.0,31.0,1.0,5000.0,0.0,35000.0,6.0
,,,,,,,,,,,,,,,,,,,,,,,2,225,2022-03-05_07h33.12.279,tareaTDv3,2020.2.5,Win32,60,,,right,1.0,2.0218,0.0,77.0,77.0,60.0,1.0,25000.0,0.0,35000.0,5.0
,,,,,,,,,,,,,,,,,,,,,,,2,225,2022-03-05_07h33.12.279,tareaTDv3,2020.2.5,Win32,60,,,left,1.0,0.9687,0.0,78.0,78.0,13.0,1.0,10000.0,0.0,111000.0,30.0
,,,,,,,,,,,,,,,,,,,,,,,2,225,2022-03-05_07h33.12.279,tareaTDv3,2020.2.5,Win32,60,,,left,1.0,2.5677,0.0,79.0,79.0,23.0,1.0,10000.0,0.0,110000.0,90.0
,,,,,,,,,,,,,,,,,,,,,,,2,225,2022-03-05_07h33.12.279,tareaTDv3,2020.2.5,Win32,60,,,right,1.0,1.0074,0.0,80.0,80.0,79.0,1.0,25000.0,0.0,150000.0,61.0
,,,,,,,,,,,,,,,,,,,,,,,2,225,2022-03-05_07h33.12.279,tareaTDv3,2020.2.5,Win32,60,,,right,0.0,4.8431,0.0,81.0,81.0,80.0,1.0,25000.0,0.0,35000.0,90.0
,,,,,,,,,,,,,,,,,,,,,,,2,225,2022-03-05_07h33.12.279,tareaTDv3,2020.2.5,Win32,60,,,left,1.0,1.1345,0.0,82.0,82.0,63.0,1.0,25000.0,0.0,125000.0,4.0
,,,,,,,,,,,,,,,,,,,,,,,2,225,2022-03-05_07h33.12.279,tareaTDv3,2020.2.5,Win32,60,,,left,1.0,4.5773,0.0,83.0,83.0,51.0,1.0,5000.0,0.0,35000.0,89.0
,,,,,,,,,,,,,,,,,,,,,,,2,225,2022-03-05_07h33.12.279,tareaTDv3,2020.2.5,Win32,60,,,left,1.0,0.9412,0.0,84.0,84.0,8.0,1.0,10000.0,0.0,111000.0,10.0
,,,,,,,,,,,,,,,,,,,,,,,2,225,2022-03-05_07h33.12.279,tareaTDv3,2020.2.5,Win32,60,,,right,1.0,5.0356,0.0,85.0,85.0,89.0,1.0,25000.0,0.0,150000.0,150.0
,,,,,,,,,,,,,,,,,,,,,,,2,225,2022-03-05_07h33.12.279,tareaTDv3,2020.2.5,Win32,60,,,right,1.0,4.0523,0.0,86.0,86.0,26.0,1.0,10000.0,0.0,39000.0,150.0
,,,,,,,,,,,,,,,,,,,,,,,2,225,2022-03-05_07h33.12.279,tareaTDv3,2020.2.5,Win32,60,,,left,1.0,7.8444,0.0,87.0,87.0,45.0,1.0,5000.0,0.0,15000.0,61.0
,,,,,,,,,,,,,,,,,,,,,,,2,225,2022-03-05_07h33.12.279,tareaTDv3,2020.2.5,Win32,60,,,left,1.0,3.4349,0.0,88.0,88.0,76.0,1.0,25000.0,0.0,55000.0,60.0
,,,,,,,,,,,,,,,,,,,,,,,2,225,2022-03-05_07h33.12.279,tareaTDv3,2020.2.5,Win32,60,,,right,1.0,2.2345,0.0,89.0,89.0,73.0,1.0,25000.0,0.0,125000.0,31.0
