key1.keys,key1.rt,key2.keys,key2.rt,key2_2.keys,key2_2.rt,key2_3.keys,key2_3.rt,key3.keys,key3.rt,key4.keys,key4.rt,respP.keys,respP.corr,Practice.thisRepN,Practice.thisTrialN,Practice.thisN,Practice.thisIndex,Practice.ran,ssAmount,llAmount,llDelay,session,participant,date,expName,psychopyVersion,OS,frameRate,respP.rt,key5.keys,key5.rt,respT.keys,respT.corr,respT.rt,trials.thisRepN,trials.thisTrialN,trials.thisN,trials.thisIndex,trials.ran,ss_am,ss_del,ll_am,ll_del,key_resp_4.keys,key_resp_4.rt
space,8.57175,space,27.53161,space,17.18023,space,4.9055,space,9.814805,space,3.585065,,0.0,0.0,0.0,0.0,1.0,1.0,25000.0,35000.0,150.0,2,226,2020-11-12_11h20.30.823,tareaTDv3,2020.2.5,Win32,60,,,,,,,,,,,,,,,,,
,,,,,,,,,,,,left,1.0,0.0,1.0,1.0,0.0,1.0,10000.0,109000.0,9.0,2,226,2020-11-12_11h20.30.823,tareaTDv3,2020.2.5,Win32,60,4.389535,,,,,,,,,,,,,,,,
,,,,,,,,,,,,left,0.0,0.0,2.0,2.0,2.0,1.0,10000.0,19000.0,89.0,2,226,2020-11-12_11h20.30.823,tareaTDv3,2020.2.5,Win32,60,6.801995,,,,,,,,,,,,,,,,
,,,,,,,,,,,,,,,,,,,,,,2,226,2020-11-12_11h20.30.823,tareaTDv3,2020.2.5,Win32,60,,g,50.38369,right,0.0,6.16073,0.0,0.0,0.0,50.0,1.0,5000.0,0.0,15000.0,91.0,,
,,,,,,,,,,,,,,,,,,,,,,2,226,2020-11-12_11h20.30.823,tareaTDv3,2020.2.5,Win32,60,,,,right,1.0,3.822545,0.0,1.0,1.0,48.0,1.0,5000.0,0.0,105000.0,60.0,,
,,,,,,,,,,,,,,,,,,,,,,2,226,2020-11-12_11h20.30.823,tareaTDv3,2020.2.5,Win32,60,,,,right,1.0,7.055615,0.0,2.0,2.0,77.0,1.0,25000.0,0.0,75000.0,59.0,,
,,,,,,,,,,,,,,,,,,,,,,2,226,2020-11-12_11h20.30.823,tareaTDv3,2020.2.5,Win32,60,,,,right,1.0,4.70878,0.0,3.0,3.0,11.0,1.0,10000.0,0.0,39000.0,29.0,,
,,,,,,,,,,,,,,,,,,,,,,2,226,2020-11-12_11h20.30.823,tareaTDv3,2020.2.5,Win32,60,,,,right,1.0,9.61165,0.0,4.0,4.0,89.0,1.0,25000.0,0.0,150000.0,150.0,,
,,,,,,,,,,,,,,,,,,,,,,2,226,2020-11-12_11h20.30.823,tareaTDv3,2020.2.5,Win32,60,,,,right,1.0,3.08676,0.0,5.0,5.0,39.0,1.0,5000.0,0.0,149000.0,10.0,,
,,,,,,,,,,,,,,,,,,,,,,2,226,2020-11-12_11h20.30.823,tareaTDv3,2020.2.5,Win32,60,,,,right,0.0,3.23788,0.0,6.0,6.0,86.0,1.0,25000.0,0.0,55000.0,151.0,,
,,,,,,,,,,,,,,,,,,,,,,2,226,2020-11-12_11h20.30.823,tareaTDv3,2020.2.5,Win32,60,,,,right,1.0,11.409055,0.0,7.0,7.0,10.0,1.0,10000.0,0.0,21000.0,31.0,,
,,,,,,,,,,,,,,,,,,,,,,2,226,2020-11-12_11h20.30.823,tareaTDv3,2020.2.5,Win32,60,,,,right,1.0,2.20621,0.0,8.0,8.0,67.0,1.0,25000.0,0.0,75000.0,10.0,,
,,,,,,,,,,,,,,,,,,,,,,2,226,2020-11-12_11h20.30.823,tareaTDv3,2020.2.5,Win32,60,,,,left,1.0,15.624445,0.0,9.0,9.0,22.0,1.0,10000.0,0.0,61000.0,89.0,,
,,,,,,,,,,,,,,,,,,,,,,2,226,2020-11-12_11h20.30.823,tareaTDv3,2020.2.5,Win32,60,,,,left,1.0,7.664875,0.0,10.0,10.0,49.0,1.0,5000.0,0.0,149000.0,59.0,,
,,,,,,,,,,,,,,,,,,,,,,2,226,2020-11-12_11h20.30.823,tareaTDv3,2020.2.5,Win32,60,,,,right,1.0,2.9162,0.0,11.0,11.0,36.0,1.0,5000.0,0.0,36000.0,9.0,,
,,,,,,,,,,,,,,,,,,,,,,2,226,2020-11-12_11h20.30.823,tareaTDv3,2020.2.5,Win32,60,,,,right,0.0,2.520165,0.0,12.0,12.0,55.0,1.0,5000.0,0.0,14000.0,149.0,,
,,,,,,,,,,,,,,,,,,,,,,2,226,2020-11-12_11h20.30.823,tareaTDv3,2020.2.5,Win32,60,,,,left,1.0,2.122735,0.0,13.0,13.0,31.0,1.0,5000.0,0.0,35000.0,6.0,,
,,,,,,,,,,,,,,,,,,,,,,2,226,2020-11-12_11h20.30.823,tareaTDv3,2020.2.5,Win32,60,,,,right,1.0,16.640645,0.0,14.0,14.0,82.0,1.0,25000.0,0.0,75000.0,90.0,,
,,,,,,,,,,,,,,,,,,,,,,2,226,2020-11-12_11h20.30.823,tareaTDv3,2020.2.5,Win32,60,,,,right,1.0,3.029365,0.0,15.0,15.0,1.0,1.0,10000.0,0.0,39000.0,6.0,,
,,,,,,,,,,,,,,,,,,,,,,2,226,2020-11-12_11h20.30.823,tareaTDv3,2020.2.5,Win32,60,,,,right,0.0,3.083375,0.0,16.0,16.0,26.0,1.0,10000.0,0.0,39000.0,150.0,,
,,,,,,,,,,,,,,,,,,,,,,2,226,2020-11-12_11h20.30.823,tareaTDv3,2020.2.5,Win32,60,,,,right,0.0,4.13421,0.0,17.0,17.0,51.0,1.0,5000.0,0.0,35000.0,89.0,,
,,,,,,,,,,,,,,,,,,,,,,2,226,2020-11-12_11h20.30.823,tareaTDv3,2020.2.5,Win32,60,,,,right,1.0,4.0597,0.0,18.0,18.0,38.0,1.0,5000.0,0.0,104000.0,10.0,,
,,,,,,,,,,,,,,,,,,,,,,2,226,2020-11-12_11h20.30.823,tareaTDv3,2020.2.5,Win32,60,,,,left,1.0,2.37003,0.0,19.0,19.0,78.0,1.0,25000.0,0.0,125000.0,59.0,,
,,,,,,,,,,,,,,,,,,,,,,2,226,2020-11-12_11h20.30.823,tareaTDv3,2020.2.5,Win32,60,,,,right,0.0,9.438145,0.0,20.0,20.0,81.0,1.0,25000.0,0.0,55000.0,90.0,,
,,,,,,,,,,,,,,,,,,,,,,2,226,2020-11-12_11h20.30.823,tareaTDv3,2020.2.5,Win32,60,,,,right,0.0,16.059285,0.0,21.0,21.0,76.0,1.0,25000.0,0.0,55000.0,60.0,,
,,,,,,,,,,,,,,,,,,,,,,2,226,2020-11-12_11h20.30.823,tareaTDv3,2020.2.5,Win32,60,,,,left,1.0,4.138745,0.0,22.0,22.0,71.0,1.0,25000.0,0.0,55000.0,30.0,,
,,,,,,,,,,,,,,,,,,,,,,2,226,2020-11-12_11h20.30.823,tareaTDv3,2020.2.5,Win32,60,,,,right,0.0,3.92013,0.0,23.0,23.0,21.0,1.0,10000.0,0.0,40000.0,91.0,,
,,,,,,,,,,,,,,,,,,,,,,2,226,2020-11-12_11h20.30.823,tareaTDv3,2020.2.5,Win32,60,,,,right,1.0,2.151945,0.0,24.0,24.0,79.0,1.0,25000.0,0.0,150000.0,61.0,,
,,,,,,,,,,,,,,,,,,,,,,2,226,2020-11-12_11h20.30.823,tareaTDv3,2020.2.5,Win32,60,,,,left,1.0,2.943395,0.0,25.0,25.0,35.0,1.0,5000.0,0.0,15000.0,11.0,,
,,,,,,,,,,,,,,,,,,,,,,2,226,2020-11-12_11h20.30.823,tareaTDv3,2020.2.5,Win32,60,,,,right,1.0,2.51859,0.0,26.0,26.0,14.0,1.0,10000.0,0.0,150000.0,30.0,,
,,,,,,,,,,,,,,,,,,,,,,2,226,2020-11-12_11h20.30.823,tareaTDv3,2020.2.5,Win32,60,,,,left,1.0,3.406765,0.0,27.0,27.0,6.0,1.0,10000.0,0.0,40000.0,10.0,,
,,,,,,,,,,,,,,,,,,,,,,2,226,2020-11-12_11h20.30.823,tareaTDv3,2020.2.5,Win32,60,,,,left,0.0,11.15511,0.0,28.0,28.0,80.0,1.0,25000.0,0.0,35000.0,90.0,,
,,,,,,,,,,,,,,,,,,,,,,2,226,2020-11-12_11h20.30.823,tareaTDv3,2020.2.5,Win32,60,,,,right,1.0,2.420045,0.0,29.0,29.0,74.0,1.0,25000.0,0.0,150000.0,29.0,,
,,,,,,,,,,,,,,,,,,,,,,2,226,2020-11-12_11h20.30.823,tareaTDv3,2020.2.5,Win32,60,,,,left,1.0,9.96834,0.0,30.0,30.0,58.0,1.0,5000.0,0.0,106000.0,152.0,,
,,,,,,,,,,,,,,,,,,,,,,2,226,2020-11-12_11h20.30.823,tareaTDv3,2020.2.5,Win32,60,,,,right,1.0,1.9542,0.0,31.0,31.0,53.0,1.0,5000.0,0.0,104000.0,90.0,,
,,,,,,,,,,,,,,,,,,,,,,2,226,2020-11-12_11h20.30.823,tareaTDv3,2020.2.5,Win32,60,,,,right,1.0,6.172585,0.0,32.0,32.0,52.0,1.0,5000.0,0.0,56000.0,89.0,,
,,,,,,,,,,,,,,,,,,,,,,2,226,2020-11-12_11h20.30.823,tareaTDv3,2020.2.5,Win32,60,,,,left,1.0,2.539255,0.0,33.0,33.0,66.0,1.0,25000.0,0.0,55000.0,11.0,,
,,,,,,,,,,,,,,,,,,,,,,2,226,2020-11-12_11h20.30.823,tareaTDv3,2020.2.5,Win32,60,,,,left,1.0,2.48987,0.0,34.0,34.0,8.0,1.0,10000.0,0.0,111000.0,10.0,,
,,,,,,,,,,,,,,,,,,,,,,2,226,2020-11-12_11h20.30.823,tareaTDv3,2020.2.5,Win32,60,,,,right,1.0,2.691585,0.0,35.0,35.0,42.0,1.0,5000.0,0.0,56000.0,29.0,,
,,,,,,,,,,,,,,,,,,,,,,2,226,2020-11-12_11h20.30.823,tareaTDv3,2020.2.5,Win32,60,,,,left,0.0,16.521445,0.0,36.0,36.0,56.0,1.0,5000.0,0.0,35000.0,150.0,,
,,,,,,,,,,,,,,,,,,,,,,2,226,2020-11-12_11h20.30.823,tareaTDv3,2020.2.5,Win32,60,,,,right,1.0,8.068405,0.0,37.0,37.0,37.0,1.0,5000.0,0.0,56000.0,9.0,,
,,,,,,,,,,,,,,,,,,,,,,2,226,2020-11-12_11h20.30.823,tareaTDv3,2020.2.5,Win32,60,,,,left,0.0,10.45896,0.0,38.0,38.0,75.0,1.0,25000.0,0.0,35000.0,60.0,,
,,,,,,,,,,,,,,,,,,,,,,2,226,2020-11-12_11h20.30.823,tareaTDv3,2020.2.5,Win32,60,,,,right,1.0,4.87633,0.0,39.0,39.0,41.0,1.0,5000.0,0.0,35000.0,31.0,,
,,,,,,,,,,,,,,,,,,,,,,2,226,2020-11-12_11h20.30.823,tareaTDv3,2020.2.5,Win32,60,,,,left,1.0,4.37289,0.0,40.0,40.0,72.0,1.0,25000.0,0.0,75000.0,31.0,,
,,,,,,,,,,,,,,,,,,,,,,2,226,2020-11-12_11h20.30.823,tareaTDv3,2020.2.5,Win32,60,,,,left,1.0,8.49791,0.0,41.0,41.0,27.0,1.0,10000.0,0.0,61000.0,150.0,,
,,,,,,,,,,,,,,,,,,,,,,2,226,2020-11-12_11h20.30.823,tareaTDv3,2020.2.5,Win32,60,,,,right,1.0,1.77274,0.0,42.0,42.0,34.0,1.0,5000.0,0.0,151000.0,4.0,,
,,,,,,,,,,,,,,,,,,,,,,2,226,2020-11-12_11h20.30.823,tareaTDv3,2020.2.5,Win32,60,,,,left,1.0,1.870735,0.0,43.0,43.0,17.0,1.0,10000.0,0.0,60000.0,60.0,,
,,,,,,,,,,,,,,,,,,,,,,2,226,2020-11-12_11h20.30.823,tareaTDv3,2020.2.5,Win32,60,,,,right,1.0,4.35089,0.0,44.0,44.0,70.0,1.0,25000.0,0.0,35000.0,30.0,,
,,,,,,,,,,,,,,,,,,,,,,2,226,2020-11-12_11h20.30.823,tareaTDv3,2020.2.5,Win32,60,,,,right,1.0,6.40434,0.0,45.0,45.0,29.0,1.0,10000.0,0.0,151000.0,151.0,,
,,,,,,,,,,,,,,,,,,,,,,2,226,2020-11-12_11h20.30.823,tareaTDv3,2020.2.5,Win32,60,,,,left,1.0,10.021835,0.0,46.0,46.0,28.0,1.0,10000.0,0.0,109000.0,149.0,,
,,,,,,,,,,,,,,,,,,,,,,2,226,2020-11-12_11h20.30.823,tareaTDv3,2020.2.5,Win32,60,,,,right,0.0,6.60862,0.0,47.0,47.0,15.0,1.0,10000.0,0.0,20000.0,59.0,,
,,,,,,,,,,,,,,,,,,,,,,2,226,2020-11-12_11h20.30.823,tareaTDv3,2020.2.5,Win32,60,,,,right,1.0,5.316765,0.0,48.0,48.0,73.0,1.0,25000.0,0.0,125000.0,31.0,,
,,,,,,,,,,,,,,,,,,,,,,2,226,2020-11-12_11h20.30.823,tareaTDv3,2020.2.5,Win32,60,,,,left,1.0,2.303145,0.0,49.0,49.0,62.0,1.0,25000.0,0.0,75000.0,5.0,,
,,,,,,,,,,,,,,,,,,,,,,2,226,2020-11-12_11h20.30.823,tareaTDv3,2020.2.5,Win32,60,,,,right,1.0,1.363995,0.0,50.0,50.0,64.0,1.0,25000.0,0.0,150000.0,4.0,,
,,,,,,,,,,,,,,,,,,,,,,2,226,2020-11-12_11h20.30.823,tareaTDv3,2020.2.5,Win32,60,,,,right,1.0,4.0274,0.0,51.0,51.0,60.0,1.0,25000.0,0.0,35000.0,5.0,,
,,,,,,,,,,,,,,,,,,,,,,2,226,2020-11-12_11h20.30.823,tareaTDv3,2020.2.5,Win32,60,,,,left,1.0,4.0446,0.0,52.0,52.0,65.0,1.0,25000.0,0.0,35000.0,11.0,,
,,,,,,,,,,,,,,,,,,,,,,2,226,2020-11-12_11h20.30.823,tareaTDv3,2020.2.5,Win32,60,,,,right,1.0,1.455795,0.0,53.0,53.0,2.0,1.0,10000.0,0.0,61000.0,4.0,,
,,,,,,,,,,,,,,,,,,,,,,2,226,2020-11-12_11h20.30.823,tareaTDv3,2020.2.5,Win32,60,,,,right,1.0,5.550055,0.0,54.0,54.0,0.0,1.0,10000.0,0.0,20000.0,5.0,,
,,,,,,,,,,,,,,,,,,,,,,2,226,2020-11-12_11h20.30.823,tareaTDv3,2020.2.5,Win32,60,,,,left,1.0,1.30821,0.0,55.0,55.0,4.0,1.0,10000.0,0.0,150000.0,5.0,,
,,,,,,,,,,,,,,,,,,,,,,2,226,2020-11-12_11h20.30.823,tareaTDv3,2020.2.5,Win32,60,,,,right,0.0,1.7877,0.0,56.0,56.0,85.0,1.0,25000.0,0.0,35000.0,150.0,,
,,,,,,,,,,,,,,,,,,,,,,2,226,2020-11-12_11h20.30.823,tareaTDv3,2020.2.5,Win32,60,,,,left,1.0,1.60514,0.0,57.0,57.0,63.0,1.0,25000.0,0.0,125000.0,4.0,,
,,,,,,,,,,,,,,,,,,,,,,2,226,2020-11-12_11h20.30.823,tareaTDv3,2020.2.5,Win32,60,,,,right,0.0,1.65623,0.0,58.0,58.0,20.0,1.0,10000.0,0.0,20000.0,90.0,,
,,,,,,,,,,,,,,,,,,,,,,2,226,2020-11-12_11h20.30.823,tareaTDv3,2020.2.5,Win32,60,,,,left,0.0,4.190725,0.0,59.0,59.0,25.0,1.0,10000.0,0.0,10000.0,150.0,,
,,,,,,,,,,,,,,,,,,,,,,2,226,2020-11-12_11h20.30.823,tareaTDv3,2020.2.5,Win32,60,,,,right,1.0,5.098985,0.0,60.0,60.0,84.0,1.0,25000.0,0.0,150000.0,89.0,,
,,,,,,,,,,,,,,,,,,,,,,2,226,2020-11-12_11h20.30.823,tareaTDv3,2020.2.5,Win32,60,,,,left,1.0,1.71938,0.0,61.0,61.0,43.0,1.0,5000.0,0.0,106000.0,29.0,,
,,,,,,,,,,,,,,,,,,,,,,2,226,2020-11-12_11h20.30.823,tareaTDv3,2020.2.5,Win32,60,,,,right,1.0,5.371665,0.0,62.0,62.0,46.0,1.0,5000.0,0.0,36000.0,61.0,,
,,,,,,,,,,,,,,,,,,,,,,2,226,2020-11-12_11h20.30.823,tareaTDv3,2020.2.5,Win32,60,,,,right,1.0,4.420135,0.0,63.0,63.0,30.0,1.0,5000.0,0.0,16000.0,4.0,,
,,,,,,,,,,,,,,,,,,,,,,2,226,2020-11-12_11h20.30.823,tareaTDv3,2020.2.5,Win32,60,,,,left,1.0,2.836315,0.0,64.0,64.0,69.0,1.0,25000.0,0.0,150000.0,9.0,,
,,,,,,,,,,,,,,,,,,,,,,2,226,2020-11-12_11h20.30.823,tareaTDv3,2020.2.5,Win32,60,,,,left,0.0,4.24621,0.0,65.0,65.0,88.0,1.0,25000.0,0.0,125000.0,149.0,,
,,,,,,,,,,,,,,,,,,,,,,2,226,2020-11-12_11h20.30.823,tareaTDv3,2020.2.5,Win32,60,,,,right,1.0,2.63275,0.0,66.0,66.0,12.0,1.0,10000.0,0.0,60000.0,29.0,,
,,,,,,,,,,,,,,,,,,,,,,2,226,2020-11-12_11h20.30.823,tareaTDv3,2020.2.5,Win32,60,,,,left,1.0,7.05133,0.0,67.0,67.0,24.0,1.0,10000.0,0.0,149000.0,89.0,,
,,,,,,,,,,,,,,,,,,,,,,2,226,2020-11-12_11h20.30.823,tareaTDv3,2020.2.5,Win32,60,,,,right,0.0,1.17247,0.0,68.0,68.0,57.0,1.0,5000.0,0.0,55000.0,151.0,,
,,,,,,,,,,,,,,,,,,,,,,2,226,2020-11-12_11h20.30.823,tareaTDv3,2020.2.5,Win32,60,,,,left,1.0,6.60267,0.0,69.0,69.0,83.0,1.0,25000.0,0.0,125000.0,89.0,,
,,,,,,,,,,,,,,,,,,,,,,2,226,2020-11-12_11h20.30.823,tareaTDv3,2020.2.5,Win32,60,,,,left,1.0,3.609965,0.0,70.0,70.0,23.0,1.0,10000.0,0.0,110000.0,90.0,,
,,,,,,,,,,,,,,,,,,,,,,2,226,2020-11-12_11h20.30.823,tareaTDv3,2020.2.5,Win32,60,,,,right,1.0,1.57115,0.0,71.0,71.0,3.0,1.0,10000.0,0.0,109000.0,5.0,,
,,,,,,,,,,,,,,,,,,,,,,2,226,2020-11-12_11h20.30.823,tareaTDv3,2020.2.5,Win32,60,,,,left,1.0,2.393375,0.0,72.0,72.0,5.0,1.0,10000.0,0.0,19000.0,11.0,,
,,,,,,,,,,,,,,,,,,,,,,2,226,2020-11-12_11h20.30.823,tareaTDv3,2020.2.5,Win32,60,,,,left,1.0,4.385585,0.0,73.0,73.0,47.0,1.0,5000.0,0.0,56000.0,60.0,,
,,,,,,,,,,,,,,,,,,,,,,2,226,2020-11-12_11h20.30.823,tareaTDv3,2020.2.5,Win32,60,,,,right,1.0,1.139155,0.0,74.0,74.0,7.0,1.0,10000.0,0.0,59000.0,9.0,,
,,,,,,,,,,,,,,,,,,,,,,2,226,2020-11-12_11h20.30.823,tareaTDv3,2020.2.5,Win32,60,,,,left,0.0,2.06597,0.0,75.0,75.0,16.0,1.0,10000.0,0.0,39000.0,59.0,,
,,,,,,,,,,,,,,,,,,,,,,2,226,2020-11-12_11h20.30.823,tareaTDv3,2020.2.5,Win32,60,,,,right,1.0,2.21875,0.0,76.0,76.0,19.0,1.0,10000.0,0.0,149000.0,61.0,,
,,,,,,,,,,,,,,,,,,,,,,2,226,2020-11-12_11h20.30.823,tareaTDv3,2020.2.5,Win32,60,,,,left,1.0,1.354845,0.0,77.0,77.0,18.0,1.0,10000.0,0.0,110000.0,60.0,,
,,,,,,,,,,,,,,,,,,,,,,2,226,2020-11-12_11h20.30.823,tareaTDv3,2020.2.5,Win32,60,,,,left,1.0,1.407185,0.0,78.0,78.0,13.0,1.0,10000.0,0.0,111000.0,30.0,,
,,,,,,,,,,,,,,,,,,,,,,2,226,2020-11-12_11h20.30.823,tareaTDv3,2020.2.5,Win32,60,,,,left,0.0,2.558505,0.0,79.0,79.0,45.0,1.0,5000.0,0.0,15000.0,61.0,,
,,,,,,,,,,,,,,,,,,,,,,2,226,2020-11-12_11h20.30.823,tareaTDv3,2020.2.5,Win32,60,,,,left,1.0,2.952045,0.0,80.0,80.0,54.0,1.0,5000.0,0.0,150000.0,90.0,,
,,,,,,,,,,,,,,,,,,,,,,2,226,2020-11-12_11h20.30.823,tareaTDv3,2020.2.5,Win32,60,,,,right,1.0,4.4364,0.0,81.0,81.0,44.0,1.0,5000.0,0.0,150000.0,30.0,,
,,,,,,,,,,,,,,,,,,,,,,2,226,2020-11-12_11h20.30.823,tareaTDv3,2020.2.5,Win32,60,,,,left,1.0,6.530445,0.0,82.0,82.0,59.0,1.0,5000.0,0.0,151000.0,150.0,,
,,,,,,,,,,,,,,,,,,,,,,2,226,2020-11-12_11h20.30.823,tareaTDv3,2020.2.5,Win32,60,,,,right,1.0,0.985265,0.0,83.0,83.0,9.0,1.0,10000.0,0.0,151000.0,11.0,,
,,,,,,,,,,,,,,,,,,,,,,2,226,2020-11-12_11h20.30.823,tareaTDv3,2020.2.5,Win32,60,,,,right,1.0,4.244575,0.0,84.0,84.0,40.0,1.0,5000.0,0.0,14000.0,31.0,,
,,,,,,,,,,,,,,,,,,,,,,2,226,2020-11-12_11h20.30.823,tareaTDv3,2020.2.5,Win32,60,,,,right,1.0,0.93909,0.0,85.0,85.0,33.0,1.0,5000.0,0.0,104000.0,5.0,,
,,,,,,,,,,,,,,,,,,,,,,2,226,2020-11-12_11h20.30.823,tareaTDv3,2020.2.5,Win32,60,,,,left,1.0,2.4058,0.0,86.0,86.0,32.0,1.0,5000.0,0.0,54000.0,5.0,,
,,,,,,,,,,,,,,,,,,,,,,2,226,2020-11-12_11h20.30.823,tareaTDv3,2020.2.5,Win32,60,,,,right,0.0,1.637815,0.0,87.0,87.0,87.0,1.0,25000.0,0.0,75000.0,151.0,,
,,,,,,,,,,,,,,,,,,,,,,2,226,2020-11-12_11h20.30.823,tareaTDv3,2020.2.5,Win32,60,,,,left,1.0,2.4724,0.0,88.0,88.0,61.0,1.0,25000.0,0.0,55000.0,6.0,,
,,,,,,,,,,,,,,,,,,,,,,2,226,2020-11-12_11h20.30.823,tareaTDv3,2020.2.5,Win32,60,,,,right,1.0,1.46685,0.0,89.0,89.0,68.0,1.0,25000.0,0.0,125000.0,9.0,,
,,,,,,,,,,,,,,,,,,,,,,2,226,2020-11-12_11h20.30.823,tareaTDv3,2020.2.5,Win32,60,,,,,,,,,,,,,,,,right,1.615185
