key1.keys,key1.rt,key2.keys,key2.rt,key2_2.keys,key2_2.rt,key2_3.keys,key2_3.rt,key3.keys,key3.rt,key4.keys,key4.rt,respP.keys,respP.corr,respP.rt,Practice.thisRepN,Practice.thisTrialN,Practice.thisN,Practice.thisIndex,Practice.ran,ssAmount,llAmount,llDelay,session,participant,date,expName,psychopyVersion,OS,frameRate,key5.keys,key5.rt,respT.keys,respT.corr,respT.rt,trials.thisRepN,trials.thisTrialN,trials.thisN,trials.thisIndex,trials.ran,ss_am,ss_del,ll_am,ll_del
space,3.4221,space,0.7885,space,0.1733,space,0.8915,right,7.1115,space,7.3238,right,0.0,7.2913,0.0,0.0,0.0,2.0,1.0,10000.0,19000.0,89.0,2,230,2022-03-05_09h48.09.930,tareaTDv3,2020.2.5,Win32,60,,,,,,,,,,,,,,
,,,,,,,,,,,,right,1.0,3.7067,0.0,1.0,1.0,0.0,1.0,10000.0,109000.0,9.0,2,230,2022-03-05_09h48.09.930,tareaTDv3,2020.2.5,Win32,60,,,,,,,,,,,,,,
,,,,,,,,,,,,left,0.0,6.807,0.0,2.0,2.0,1.0,1.0,25000.0,35000.0,150.0,2,230,2022-03-05_09h48.09.930,tareaTDv3,2020.2.5,Win32,60,,,,,,,,,,,,,,
,,,,,,,,,,,,,,,,,,,,,,,2,230,2022-03-05_09h48.09.930,tareaTDv3,2020.2.5,Win32,60,g,11.2024,right,1.0,3.9569,0.0,0.0,0.0,71.0,1.0,25000.0,0.0,55000.0,30.0
,,,,,,,,,,,,,,,,,,,,,,,2,230,2022-03-05_09h48.09.930,tareaTDv3,2020.2.5,Win32,60,,,left,1.0,2.773,0.0,1.0,1.0,9.0,1.0,10000.0,0.0,151000.0,11.0
,,,,,,,,,,,,,,,,,,,,,,,2,230,2022-03-05_09h48.09.930,tareaTDv3,2020.2.5,Win32,60,,,left,1.0,5.0064,0.0,2.0,2.0,16.0,1.0,10000.0,0.0,39000.0,59.0
,,,,,,,,,,,,,,,,,,,,,,,2,230,2022-03-05_09h48.09.930,tareaTDv3,2020.2.5,Win32,60,,,left,1.0,3.0564,0.0,3.0,3.0,22.0,1.0,10000.0,0.0,61000.0,89.0
,,,,,,,,,,,,,,,,,,,,,,,2,230,2022-03-05_09h48.09.930,tareaTDv3,2020.2.5,Win32,60,,,right,1.0,2.3734,0.0,4.0,4.0,1.0,1.0,10000.0,0.0,39000.0,6.0
,,,,,,,,,,,,,,,,,,,,,,,2,230,2022-03-05_09h48.09.930,tareaTDv3,2020.2.5,Win32,60,,,right,1.0,2.2738,0.0,5.0,5.0,74.0,1.0,25000.0,0.0,150000.0,29.0
,,,,,,,,,,,,,,,,,,,,,,,2,230,2022-03-05_09h48.09.930,tareaTDv3,2020.2.5,Win32,60,,,right,1.0,3.1805,0.0,6.0,6.0,38.0,1.0,5000.0,0.0,104000.0,10.0
,,,,,,,,,,,,,,,,,,,,,,,2,230,2022-03-05_09h48.09.930,tareaTDv3,2020.2.5,Win32,60,,,right,1.0,3.857,0.0,7.0,7.0,65.0,1.0,25000.0,0.0,35000.0,11.0
,,,,,,,,,,,,,,,,,,,,,,,2,230,2022-03-05_09h48.09.930,tareaTDv3,2020.2.5,Win32,60,,,right,1.0,4.6062,0.0,8.0,8.0,82.0,1.0,25000.0,0.0,75000.0,90.0
,,,,,,,,,,,,,,,,,,,,,,,2,230,2022-03-05_09h48.09.930,tareaTDv3,2020.2.5,Win32,60,,,right,1.0,7.258,0.0,9.0,9.0,30.0,1.0,5000.0,0.0,16000.0,4.0
,,,,,,,,,,,,,,,,,,,,,,,2,230,2022-03-05_09h48.09.930,tareaTDv3,2020.2.5,Win32,60,,,right,1.0,2.4741,0.0,10.0,10.0,69.0,1.0,25000.0,0.0,150000.0,9.0
,,,,,,,,,,,,,,,,,,,,,,,2,230,2022-03-05_09h48.09.930,tareaTDv3,2020.2.5,Win32,60,,,right,1.0,8.1902,0.0,11.0,11.0,78.0,1.0,25000.0,0.0,125000.0,59.0
,,,,,,,,,,,,,,,,,,,,,,,2,230,2022-03-05_09h48.09.930,tareaTDv3,2020.2.5,Win32,60,,,left,1.0,8.0404,0.0,12.0,12.0,51.0,1.0,5000.0,0.0,35000.0,89.0
,,,,,,,,,,,,,,,,,,,,,,,2,230,2022-03-05_09h48.09.930,tareaTDv3,2020.2.5,Win32,60,,,right,1.0,2.7743,0.0,13.0,13.0,41.0,1.0,5000.0,0.0,35000.0,31.0
,,,,,,,,,,,,,,,,,,,,,,,2,230,2022-03-05_09h48.09.930,tareaTDv3,2020.2.5,Win32,60,,,left,1.0,2.6401,0.0,14.0,14.0,39.0,1.0,5000.0,0.0,149000.0,10.0
,,,,,,,,,,,,,,,,,,,,,,,2,230,2022-03-05_09h48.09.930,tareaTDv3,2020.2.5,Win32,60,,,left,0.0,3.5406,0.0,15.0,15.0,29.0,1.0,10000.0,0.0,151000.0,151.0
,,,,,,,,,,,,,,,,,,,,,,,2,230,2022-03-05_09h48.09.930,tareaTDv3,2020.2.5,Win32,60,,,left,1.0,2.89,0.0,16.0,16.0,79.0,1.0,25000.0,0.0,150000.0,61.0
,,,,,,,,,,,,,,,,,,,,,,,2,230,2022-03-05_09h48.09.930,tareaTDv3,2020.2.5,Win32,60,,,right,1.0,3.7574,0.0,17.0,17.0,72.0,1.0,25000.0,0.0,75000.0,31.0
,,,,,,,,,,,,,,,,,,,,,,,2,230,2022-03-05_09h48.09.930,tareaTDv3,2020.2.5,Win32,60,,,left,1.0,11.1905,0.0,18.0,18.0,17.0,1.0,10000.0,0.0,60000.0,60.0
,,,,,,,,,,,,,,,,,,,,,,,2,230,2022-03-05_09h48.09.930,tareaTDv3,2020.2.5,Win32,60,,,right,1.0,7.256,0.0,19.0,19.0,24.0,1.0,10000.0,0.0,149000.0,89.0
,,,,,,,,,,,,,,,,,,,,,,,2,230,2022-03-05_09h48.09.930,tareaTDv3,2020.2.5,Win32,60,,,right,1.0,5.1722,0.0,20.0,20.0,54.0,1.0,5000.0,0.0,150000.0,90.0
,,,,,,,,,,,,,,,,,,,,,,,2,230,2022-03-05_09h48.09.930,tareaTDv3,2020.2.5,Win32,60,,,right,1.0,6.6567,0.0,21.0,21.0,48.0,1.0,5000.0,0.0,105000.0,60.0
,,,,,,,,,,,,,,,,,,,,,,,2,230,2022-03-05_09h48.09.930,tareaTDv3,2020.2.5,Win32,60,,,left,0.0,1.5402,0.0,22.0,22.0,85.0,1.0,25000.0,0.0,35000.0,150.0
,,,,,,,,,,,,,,,,,,,,,,,2,230,2022-03-05_09h48.09.930,tareaTDv3,2020.2.5,Win32,60,,,left,1.0,2.7397,0.0,23.0,23.0,61.0,1.0,25000.0,0.0,55000.0,6.0
,,,,,,,,,,,,,,,,,,,,,,,2,230,2022-03-05_09h48.09.930,tareaTDv3,2020.2.5,Win32,60,,,right,1.0,7.0898,0.0,24.0,24.0,60.0,1.0,25000.0,0.0,35000.0,5.0
,,,,,,,,,,,,,,,,,,,,,,,2,230,2022-03-05_09h48.09.930,tareaTDv3,2020.2.5,Win32,60,,,right,0.0,5.6403,0.0,25.0,25.0,55.0,1.0,5000.0,0.0,14000.0,149.0
,,,,,,,,,,,,,,,,,,,,,,,2,230,2022-03-05_09h48.09.930,tareaTDv3,2020.2.5,Win32,60,,,left,1.0,8.0561,0.0,26.0,26.0,57.0,1.0,5000.0,0.0,55000.0,151.0
,,,,,,,,,,,,,,,,,,,,,,,2,230,2022-03-05_09h48.09.930,tareaTDv3,2020.2.5,Win32,60,,,right,1.0,3.3907,0.0,27.0,27.0,2.0,1.0,10000.0,0.0,61000.0,4.0
,,,,,,,,,,,,,,,,,,,,,,,2,230,2022-03-05_09h48.09.930,tareaTDv3,2020.2.5,Win32,60,,,right,0.0,9.4737,0.0,28.0,28.0,45.0,1.0,5000.0,0.0,15000.0,61.0
,,,,,,,,,,,,,,,,,,,,,,,2,230,2022-03-05_09h48.09.930,tareaTDv3,2020.2.5,Win32,60,,,left,1.0,3.8572,0.0,29.0,29.0,68.0,1.0,25000.0,0.0,125000.0,9.0
,,,,,,,,,,,,,,,,,,,,,,,2,230,2022-03-05_09h48.09.930,tareaTDv3,2020.2.5,Win32,60,,,left,1.0,10.89,0.0,30.0,30.0,43.0,1.0,5000.0,0.0,106000.0,29.0
,,,,,,,,,,,,,,,,,,,,,,,2,230,2022-03-05_09h48.09.930,tareaTDv3,2020.2.5,Win32,60,,,right,1.0,2.7561,0.0,31.0,31.0,13.0,1.0,10000.0,0.0,111000.0,30.0
,,,,,,,,,,,,,,,,,,,,,,,2,230,2022-03-05_09h48.09.930,tareaTDv3,2020.2.5,Win32,60,,,right,1.0,4.7232,0.0,32.0,32.0,19.0,1.0,10000.0,0.0,149000.0,61.0
,,,,,,,,,,,,,,,,,,,,,,,2,230,2022-03-05_09h48.09.930,tareaTDv3,2020.2.5,Win32,60,,,left,1.0,2.4072,0.0,33.0,33.0,63.0,1.0,25000.0,0.0,125000.0,4.0
,,,,,,,,,,,,,,,,,,,,,,,2,230,2022-03-05_09h48.09.930,tareaTDv3,2020.2.5,Win32,60,,,right,1.0,2.0735,0.0,34.0,34.0,77.0,1.0,25000.0,0.0,75000.0,59.0
,,,,,,,,,,,,,,,,,,,,,,,2,230,2022-03-05_09h48.09.930,tareaTDv3,2020.2.5,Win32,60,,,left,0.0,4.2732,0.0,35.0,35.0,25.0,1.0,10000.0,0.0,10000.0,150.0
,,,,,,,,,,,,,,,,,,,,,,,2,230,2022-03-05_09h48.09.930,tareaTDv3,2020.2.5,Win32,60,,,left,0.0,5.3733,0.0,36.0,36.0,58.0,1.0,5000.0,0.0,106000.0,152.0
,,,,,,,,,,,,,,,,,,,,,,,2,230,2022-03-05_09h48.09.930,tareaTDv3,2020.2.5,Win32,60,,,left,1.0,6.957,0.0,37.0,37.0,83.0,1.0,25000.0,0.0,125000.0,89.0
,,,,,,,,,,,,,,,,,,,,,,,2,230,2022-03-05_09h48.09.930,tareaTDv3,2020.2.5,Win32,60,,,left,1.0,2.2408,0.0,38.0,38.0,62.0,1.0,25000.0,0.0,75000.0,5.0
,,,,,,,,,,,,,,,,,,,,,,,2,230,2022-03-05_09h48.09.930,tareaTDv3,2020.2.5,Win32,60,,,left,1.0,5.0403,0.0,39.0,39.0,59.0,1.0,5000.0,0.0,151000.0,150.0
,,,,,,,,,,,,,,,,,,,,,,,2,230,2022-03-05_09h48.09.930,tareaTDv3,2020.2.5,Win32,60,,,right,1.0,8.2068,0.0,40.0,40.0,56.0,1.0,5000.0,0.0,35000.0,150.0
,,,,,,,,,,,,,,,,,,,,,,,2,230,2022-03-05_09h48.09.930,tareaTDv3,2020.2.5,Win32,60,,,left,1.0,2.3587,0.0,41.0,41.0,5.0,1.0,10000.0,0.0,19000.0,11.0
,,,,,,,,,,,,,,,,,,,,,,,2,230,2022-03-05_09h48.09.930,tareaTDv3,2020.2.5,Win32,60,,,left,1.0,2.8076,0.0,42.0,42.0,64.0,1.0,25000.0,0.0,150000.0,4.0
,,,,,,,,,,,,,,,,,,,,,,,2,230,2022-03-05_09h48.09.930,tareaTDv3,2020.2.5,Win32,60,,,left,1.0,7.1732,0.0,43.0,43.0,11.0,1.0,10000.0,0.0,39000.0,29.0
,,,,,,,,,,,,,,,,,,,,,,,2,230,2022-03-05_09h48.09.930,tareaTDv3,2020.2.5,Win32,60,,,left,0.0,1.7737,0.0,44.0,44.0,75.0,1.0,25000.0,0.0,35000.0,60.0
,,,,,,,,,,,,,,,,,,,,,,,2,230,2022-03-05_09h48.09.930,tareaTDv3,2020.2.5,Win32,60,,,left,0.0,4.807,0.0,45.0,45.0,21.0,1.0,10000.0,0.0,40000.0,91.0
,,,,,,,,,,,,,,,,,,,,,,,2,230,2022-03-05_09h48.09.930,tareaTDv3,2020.2.5,Win32,60,,,right,0.0,4.0064,0.0,46.0,46.0,50.0,1.0,5000.0,0.0,15000.0,91.0
,,,,,,,,,,,,,,,,,,,,,,,2,230,2022-03-05_09h48.09.930,tareaTDv3,2020.2.5,Win32,60,,,left,1.0,1.7066,0.0,47.0,47.0,42.0,1.0,5000.0,0.0,56000.0,29.0
,,,,,,,,,,,,,,,,,,,,,,,2,230,2022-03-05_09h48.09.930,tareaTDv3,2020.2.5,Win32,60,,,left,1.0,5.2736,0.0,48.0,48.0,53.0,1.0,5000.0,0.0,104000.0,90.0
,,,,,,,,,,,,,,,,,,,,,,,2,230,2022-03-05_09h48.09.930,tareaTDv3,2020.2.5,Win32,60,,,left,0.0,6.7066,0.0,49.0,49.0,81.0,1.0,25000.0,0.0,55000.0,90.0
,,,,,,,,,,,,,,,,,,,,,,,2,230,2022-03-05_09h48.09.930,tareaTDv3,2020.2.5,Win32,60,,,left,1.0,6.257,0.0,50.0,50.0,88.0,1.0,25000.0,0.0,125000.0,149.0
,,,,,,,,,,,,,,,,,,,,,,,2,230,2022-03-05_09h48.09.930,tareaTDv3,2020.2.5,Win32,60,,,right,1.0,2.2405,0.0,51.0,51.0,4.0,1.0,10000.0,0.0,150000.0,5.0
,,,,,,,,,,,,,,,,,,,,,,,2,230,2022-03-05_09h48.09.930,tareaTDv3,2020.2.5,Win32,60,,,left,1.0,6.3233,0.0,52.0,52.0,6.0,1.0,10000.0,0.0,40000.0,10.0
,,,,,,,,,,,,,,,,,,,,,,,2,230,2022-03-05_09h48.09.930,tareaTDv3,2020.2.5,Win32,60,,,right,0.0,3.3254,0.0,53.0,53.0,20.0,1.0,10000.0,0.0,20000.0,90.0
,,,,,,,,,,,,,,,,,,,,,,,2,230,2022-03-05_09h48.09.930,tareaTDv3,2020.2.5,Win32,60,,,right,1.0,5.3397,0.0,54.0,54.0,47.0,1.0,5000.0,0.0,56000.0,60.0
,,,,,,,,,,,,,,,,,,,,,,,2,230,2022-03-05_09h48.09.930,tareaTDv3,2020.2.5,Win32,60,,,left,1.0,3.3068,0.0,55.0,55.0,32.0,1.0,5000.0,0.0,54000.0,5.0
,,,,,,,,,,,,,,,,,,,,,,,2,230,2022-03-05_09h48.09.930,tareaTDv3,2020.2.5,Win32,60,,,left,1.0,2.39,0.0,56.0,56.0,49.0,1.0,5000.0,0.0,149000.0,59.0
,,,,,,,,,,,,,,,,,,,,,,,2,230,2022-03-05_09h48.09.930,tareaTDv3,2020.2.5,Win32,60,,,right,0.0,2.3226,0.0,57.0,57.0,26.0,1.0,10000.0,0.0,39000.0,150.0
,,,,,,,,,,,,,,,,,,,,,,,2,230,2022-03-05_09h48.09.930,tareaTDv3,2020.2.5,Win32,60,,,right,1.0,3.8898,0.0,58.0,58.0,23.0,1.0,10000.0,0.0,110000.0,90.0
,,,,,,,,,,,,,,,,,,,,,,,2,230,2022-03-05_09h48.09.930,tareaTDv3,2020.2.5,Win32,60,,,left,1.0,5.1765,0.0,59.0,59.0,76.0,1.0,25000.0,0.0,55000.0,60.0
,,,,,,,,,,,,,,,,,,,,,,,2,230,2022-03-05_09h48.09.930,tareaTDv3,2020.2.5,Win32,60,,,right,1.0,6.2913,0.0,60.0,60.0,0.0,1.0,10000.0,0.0,20000.0,5.0
,,,,,,,,,,,,,,,,,,,,,,,2,230,2022-03-05_09h48.09.930,tareaTDv3,2020.2.5,Win32,60,,,right,1.0,7.3575,0.0,61.0,61.0,12.0,1.0,10000.0,0.0,60000.0,29.0
,,,,,,,,,,,,,,,,,,,,,,,2,230,2022-03-05_09h48.09.930,tareaTDv3,2020.2.5,Win32,60,,,right,1.0,10.5571,0.0,62.0,62.0,84.0,1.0,25000.0,0.0,150000.0,89.0
,,,,,,,,,,,,,,,,,,,,,,,2,230,2022-03-05_09h48.09.930,tareaTDv3,2020.2.5,Win32,60,,,left,1.0,3.0728,0.0,63.0,63.0,7.0,1.0,10000.0,0.0,59000.0,9.0
,,,,,,,,,,,,,,,,,,,,,,,2,230,2022-03-05_09h48.09.930,tareaTDv3,2020.2.5,Win32,60,,,right,1.0,1.5906,0.0,64.0,64.0,31.0,1.0,5000.0,0.0,35000.0,6.0
,,,,,,,,,,,,,,,,,,,,,,,2,230,2022-03-05_09h48.09.930,tareaTDv3,2020.2.5,Win32,60,,,left,1.0,14.7903,0.0,65.0,65.0,52.0,1.0,5000.0,0.0,56000.0,89.0
,,,,,,,,,,,,,,,,,,,,,,,2,230,2022-03-05_09h48.09.930,tareaTDv3,2020.2.5,Win32,60,,,right,1.0,4.6078,0.0,66.0,66.0,3.0,1.0,10000.0,0.0,109000.0,5.0
,,,,,,,,,,,,,,,,,,,,,,,2,230,2022-03-05_09h48.09.930,tareaTDv3,2020.2.5,Win32,60,,,left,1.0,2.3233,0.0,67.0,67.0,44.0,1.0,5000.0,0.0,150000.0,30.0
,,,,,,,,,,,,,,,,,,,,,,,2,230,2022-03-05_09h48.09.930,tareaTDv3,2020.2.5,Win32,60,,,right,1.0,5.0073,0.0,68.0,68.0,67.0,1.0,25000.0,0.0,75000.0,10.0
,,,,,,,,,,,,,,,,,,,,,,,2,230,2022-03-05_09h48.09.930,tareaTDv3,2020.2.5,Win32,60,,,right,1.0,1.7563,0.0,69.0,69.0,34.0,1.0,5000.0,0.0,151000.0,4.0
,,,,,,,,,,,,,,,,,,,,,,,2,230,2022-03-05_09h48.09.930,tareaTDv3,2020.2.5,Win32,60,,,left,0.0,8.4408,0.0,70.0,70.0,10.0,1.0,10000.0,0.0,21000.0,31.0
,,,,,,,,,,,,,,,,,,,,,,,2,230,2022-03-05_09h48.09.930,tareaTDv3,2020.2.5,Win32,60,,,left,1.0,3.5733,0.0,71.0,71.0,89.0,1.0,25000.0,0.0,150000.0,150.0
,,,,,,,,,,,,,,,,,,,,,,,2,230,2022-03-05_09h48.09.930,tareaTDv3,2020.2.5,Win32,60,,,left,1.0,2.7241,0.0,72.0,72.0,8.0,1.0,10000.0,0.0,111000.0,10.0
,,,,,,,,,,,,,,,,,,,,,,,2,230,2022-03-05_09h48.09.930,tareaTDv3,2020.2.5,Win32,60,,,left,1.0,2.2072,0.0,73.0,73.0,37.0,1.0,5000.0,0.0,56000.0,9.0
,,,,,,,,,,,,,,,,,,,,,,,2,230,2022-03-05_09h48.09.930,tareaTDv3,2020.2.5,Win32,60,,,left,0.0,4.34,0.0,74.0,74.0,15.0,1.0,10000.0,0.0,20000.0,59.0
,,,,,,,,,,,,,,,,,,,,,,,2,230,2022-03-05_09h48.09.930,tareaTDv3,2020.2.5,Win32,60,,,right,1.0,3.3743,0.0,75.0,75.0,73.0,1.0,25000.0,0.0,125000.0,31.0
,,,,,,,,,,,,,,,,,,,,,,,2,230,2022-03-05_09h48.09.930,tareaTDv3,2020.2.5,Win32,60,,,left,1.0,3.0432,0.0,76.0,76.0,35.0,1.0,5000.0,0.0,15000.0,11.0
,,,,,,,,,,,,,,,,,,,,,,,2,230,2022-03-05_09h48.09.930,tareaTDv3,2020.2.5,Win32,60,,,right,1.0,6.8241,0.0,77.0,77.0,70.0,1.0,25000.0,0.0,35000.0,30.0
,,,,,,,,,,,,,,,,,,,,,,,2,230,2022-03-05_09h48.09.930,tareaTDv3,2020.2.5,Win32,60,,,left,1.0,2.0407,0.0,78.0,78.0,14.0,1.0,10000.0,0.0,150000.0,30.0
,,,,,,,,,,,,,,,,,,,,,,,2,230,2022-03-05_09h48.09.930,tareaTDv3,2020.2.5,Win32,60,,,left,1.0,1.4249,0.0,79.0,79.0,33.0,1.0,5000.0,0.0,104000.0,5.0
,,,,,,,,,,,,,,,,,,,,,,,2,230,2022-03-05_09h48.09.930,tareaTDv3,2020.2.5,Win32,60,,,left,1.0,3.7066,0.0,80.0,80.0,18.0,1.0,10000.0,0.0,110000.0,60.0
,,,,,,,,,,,,,,,,,,,,,,,2,230,2022-03-05_09h48.09.930,tareaTDv3,2020.2.5,Win32,60,,,right,1.0,2.0735,0.0,81.0,81.0,36.0,1.0,5000.0,0.0,36000.0,9.0
,,,,,,,,,,,,,,,,,,,,,,,2,230,2022-03-05_09h48.09.930,tareaTDv3,2020.2.5,Win32,60,,,left,1.0,2.8234,0.0,82.0,82.0,46.0,1.0,5000.0,0.0,36000.0,61.0
,,,,,,,,,,,,,,,,,,,,,,,2,230,2022-03-05_09h48.09.930,tareaTDv3,2020.2.5,Win32,60,,,left,1.0,5.388,0.0,83.0,83.0,28.0,1.0,10000.0,0.0,109000.0,149.0
,,,,,,,,,,,,,,,,,,,,,,,2,230,2022-03-05_09h48.09.930,tareaTDv3,2020.2.5,Win32,60,,,right,1.0,2.8073,0.0,84.0,84.0,66.0,1.0,25000.0,0.0,55000.0,11.0
,,,,,,,,,,,,,,,,,,,,,,,2,230,2022-03-05_09h48.09.930,tareaTDv3,2020.2.5,Win32,60,,,right,0.0,5.2791,0.0,85.0,85.0,86.0,1.0,25000.0,0.0,55000.0,151.0
,,,,,,,,,,,,,,,,,,,,,,,2,230,2022-03-05_09h48.09.930,tareaTDv3,2020.2.5,Win32,60,,,left,1.0,3.6747,0.0,86.0,86.0,27.0,1.0,10000.0,0.0,61000.0,150.0
,,,,,,,,,,,,,,,,,,,,,,,2,230,2022-03-05_09h48.09.930,tareaTDv3,2020.2.5,Win32,60,,,right,1.0,5.1797,0.0,87.0,87.0,40.0,1.0,5000.0,0.0,14000.0,31.0
,,,,,,,,,,,,,,,,,,,,,,,2,230,2022-03-05_09h48.09.930,tareaTDv3,2020.2.5,Win32,60,,,right,1.0,3.6907,0.0,88.0,88.0,87.0,1.0,25000.0,0.0,75000.0,151.0
,,,,,,,,,,,,,,,,,,,,,,,2,230,2022-03-05_09h48.09.930,tareaTDv3,2020.2.5,Win32,60,,,right,0.0,5.71,0.0,89.0,89.0,80.0,1.0,25000.0,0.0,35000.0,90.0
