key1.keys,key1.rt,key2.keys,key2.rt,key2_2.keys,key2_2.rt,key2_3.keys,key2_3.rt,key3.keys,key3.rt,key4.keys,key4.rt,respP.keys,respP.corr,respP.rt,Practice.thisRepN,Practice.thisTrialN,Practice.thisN,Practice.thisIndex,Practice.ran,ssAmount,llAmount,llDelay,session,participant,date,expName,psychopyVersion,OS,frameRate,key5.keys,key5.rt,respT.keys,respT.corr,respT.rt,trials.thisRepN,trials.thisTrialN,trials.thisN,trials.thisIndex,trials.ran,ss_am,ss_del,ll_am,ll_del,key_resp_4.keys,key_resp_4.rt
space,4.217,space,1.2837,space,1.9153,space,10.601,right,12.3796,space,2.2369,right,1.0,4.1878,0.0,0.0,0.0,0.0,1.0,10000.0,109000.0,9.0,25-07-2022,342,2022-07-25_07h51.23.226,tareaTDv3,2020.2.5,Win32,60,,,,,,,,,,,,,,,,
,,,,,,,,,,,,right,0.0,3.9801,0.0,1.0,1.0,1.0,1.0,25000.0,35000.0,150.0,25-07-2022,342,2022-07-25_07h51.23.226,tareaTDv3,2020.2.5,Win32,60,,,,,,,,,,,,,,,,
,,,,,,,,,,,,,0.0,,0.0,2.0,2.0,2.0,1.0,10000.0,19000.0,89.0,25-07-2022,342,2022-07-25_07h51.23.226,tareaTDv3,2020.2.5,Win32,60,,,,,,,,,,,,,,,,
,,,,,,,,,,,,,,,,,,,,,,,25-07-2022,342,2022-07-25_07h51.23.226,tareaTDv3,2020.2.5,Win32,60,g,65.0528,left,1.0,2.5311,0.0,0.0,0.0,12.0,1.0,10000.0,0.0,60000.0,29.0,,
,,,,,,,,,,,,,,,,,,,,,,,25-07-2022,342,2022-07-25_07h51.23.226,tareaTDv3,2020.2.5,Win32,60,,,left,1.0,4.0259,0.0,1.0,1.0,24.0,1.0,10000.0,0.0,149000.0,89.0,,
,,,,,,,,,,,,,,,,,,,,,,,25-07-2022,342,2022-07-25_07h51.23.226,tareaTDv3,2020.2.5,Win32,60,,,left,1.0,2.5812,0.0,2.0,2.0,42.0,1.0,5000.0,0.0,56000.0,29.0,,
,,,,,,,,,,,,,,,,,,,,,,,25-07-2022,342,2022-07-25_07h51.23.226,tareaTDv3,2020.2.5,Win32,60,,,right,1.0,5.0838,0.0,3.0,3.0,44.0,1.0,5000.0,0.0,150000.0,30.0,,
,,,,,,,,,,,,,,,,,,,,,,,25-07-2022,342,2022-07-25_07h51.23.226,tareaTDv3,2020.2.5,Win32,60,,,left,1.0,5.1463,0.0,4.0,4.0,15.0,1.0,10000.0,0.0,20000.0,59.0,,
,,,,,,,,,,,,,,,,,,,,,,,25-07-2022,342,2022-07-25_07h51.23.226,tareaTDv3,2020.2.5,Win32,60,,,left,0.0,2.9945,0.0,5.0,5.0,70.0,1.0,25000.0,0.0,35000.0,30.0,,
,,,,,,,,,,,,,,,,,,,,,,,25-07-2022,342,2022-07-25_07h51.23.226,tareaTDv3,2020.2.5,Win32,60,,,right,1.0,4.1369,0.0,6.0,6.0,27.0,1.0,10000.0,0.0,61000.0,150.0,,
,,,,,,,,,,,,,,,,,,,,,,,25-07-2022,342,2022-07-25_07h51.23.226,tareaTDv3,2020.2.5,Win32,60,,,left,1.0,6.4004,0.0,7.0,7.0,2.0,1.0,10000.0,0.0,61000.0,4.0,,
,,,,,,,,,,,,,,,,,,,,,,,25-07-2022,342,2022-07-25_07h51.23.226,tareaTDv3,2020.2.5,Win32,60,,,left,1.0,1.7404,0.0,8.0,8.0,9.0,1.0,10000.0,0.0,151000.0,11.0,,
,,,,,,,,,,,,,,,,,,,,,,,25-07-2022,342,2022-07-25_07h51.23.226,tareaTDv3,2020.2.5,Win32,60,,,left,0.0,4.0224,0.0,9.0,9.0,86.0,1.0,25000.0,0.0,55000.0,151.0,,
,,,,,,,,,,,,,,,,,,,,,,,25-07-2022,342,2022-07-25_07h51.23.226,tareaTDv3,2020.2.5,Win32,60,,,left,0.0,10.8564,0.0,10.0,10.0,87.0,1.0,25000.0,0.0,75000.0,151.0,,
,,,,,,,,,,,,,,,,,,,,,,,25-07-2022,342,2022-07-25_07h51.23.226,tareaTDv3,2020.2.5,Win32,60,,,left,1.0,1.7628,0.0,11.0,11.0,14.0,1.0,10000.0,0.0,150000.0,30.0,,
,,,,,,,,,,,,,,,,,,,,,,,25-07-2022,342,2022-07-25_07h51.23.226,tareaTDv3,2020.2.5,Win32,60,,,left,1.0,2.059,0.0,12.0,12.0,71.0,1.0,25000.0,0.0,55000.0,30.0,,
,,,,,,,,,,,,,,,,,,,,,,,25-07-2022,342,2022-07-25_07h51.23.226,tareaTDv3,2020.2.5,Win32,60,,,left,1.0,3.5143,0.0,13.0,13.0,7.0,1.0,10000.0,0.0,59000.0,9.0,,
,,,,,,,,,,,,,,,,,,,,,,,25-07-2022,342,2022-07-25_07h51.23.226,tareaTDv3,2020.2.5,Win32,60,,,right,1.0,1.5969,0.0,14.0,14.0,33.0,1.0,5000.0,0.0,104000.0,5.0,,
,,,,,,,,,,,,,,,,,,,,,,,25-07-2022,342,2022-07-25_07h51.23.226,tareaTDv3,2020.2.5,Win32,60,,,left,1.0,4.8328,0.0,15.0,15.0,21.0,1.0,10000.0,0.0,40000.0,91.0,,
,,,,,,,,,,,,,,,,,,,,,,,25-07-2022,342,2022-07-25_07h51.23.226,tareaTDv3,2020.2.5,Win32,60,,,left,1.0,3.2066,0.0,16.0,16.0,0.0,1.0,10000.0,0.0,20000.0,5.0,,
,,,,,,,,,,,,,,,,,,,,,,,25-07-2022,342,2022-07-25_07h51.23.226,tareaTDv3,2020.2.5,Win32,60,,,right,1.0,9.8831,0.0,17.0,17.0,77.0,1.0,25000.0,0.0,75000.0,59.0,,
,,,,,,,,,,,,,,,,,,,,,,,25-07-2022,342,2022-07-25_07h51.23.226,tareaTDv3,2020.2.5,Win32,60,,,right,1.0,3.7673,0.0,18.0,18.0,22.0,1.0,10000.0,0.0,61000.0,89.0,,
,,,,,,,,,,,,,,,,,,,,,,,25-07-2022,342,2022-07-25_07h51.23.226,tareaTDv3,2020.2.5,Win32,60,,,right,1.0,2.6395,0.0,19.0,19.0,72.0,1.0,25000.0,0.0,75000.0,31.0,,
,,,,,,,,,,,,,,,,,,,,,,,25-07-2022,342,2022-07-25_07h51.23.226,tareaTDv3,2020.2.5,Win32,60,,,left,1.0,1.7751,0.0,20.0,20.0,1.0,1.0,10000.0,0.0,39000.0,6.0,,
,,,,,,,,,,,,,,,,,,,,,,,25-07-2022,342,2022-07-25_07h51.23.226,tareaTDv3,2020.2.5,Win32,60,,,left,1.0,1.8715,0.0,21.0,21.0,52.0,1.0,5000.0,0.0,56000.0,89.0,,
,,,,,,,,,,,,,,,,,,,,,,,25-07-2022,342,2022-07-25_07h51.23.226,tareaTDv3,2020.2.5,Win32,60,,,right,1.0,3.1806,0.0,22.0,22.0,40.0,1.0,5000.0,0.0,14000.0,31.0,,
,,,,,,,,,,,,,,,,,,,,,,,25-07-2022,342,2022-07-25_07h51.23.226,tareaTDv3,2020.2.5,Win32,60,,,right,1.0,0.8441,0.0,23.0,23.0,31.0,1.0,5000.0,0.0,35000.0,6.0,,
,,,,,,,,,,,,,,,,,,,,,,,25-07-2022,342,2022-07-25_07h51.23.226,tareaTDv3,2020.2.5,Win32,60,,,left,1.0,3.3035,0.0,24.0,24.0,83.0,1.0,25000.0,0.0,125000.0,89.0,,
,,,,,,,,,,,,,,,,,,,,,,,25-07-2022,342,2022-07-25_07h51.23.226,tareaTDv3,2020.2.5,Win32,60,,,left,1.0,4.9675,0.0,25.0,25.0,53.0,1.0,5000.0,0.0,104000.0,90.0,,
,,,,,,,,,,,,,,,,,,,,,,,25-07-2022,342,2022-07-25_07h51.23.226,tareaTDv3,2020.2.5,Win32,60,,,right,1.0,4.6726,0.0,26.0,26.0,6.0,1.0,10000.0,0.0,40000.0,10.0,,
,,,,,,,,,,,,,,,,,,,,,,,25-07-2022,342,2022-07-25_07h51.23.226,tareaTDv3,2020.2.5,Win32,60,,,right,1.0,2.732,0.0,27.0,27.0,46.0,1.0,5000.0,0.0,36000.0,61.0,,
,,,,,,,,,,,,,,,,,,,,,,,25-07-2022,342,2022-07-25_07h51.23.226,tareaTDv3,2020.2.5,Win32,60,,,left,0.0,2.1922,0.0,28.0,28.0,20.0,1.0,10000.0,0.0,20000.0,90.0,,
,,,,,,,,,,,,,,,,,,,,,,,25-07-2022,342,2022-07-25_07h51.23.226,tareaTDv3,2020.2.5,Win32,60,,,left,0.0,2.8597,0.0,29.0,29.0,45.0,1.0,5000.0,0.0,15000.0,61.0,,
,,,,,,,,,,,,,,,,,,,,,,,25-07-2022,342,2022-07-25_07h51.23.226,tareaTDv3,2020.2.5,Win32,60,,,right,1.0,2.9141,0.0,30.0,30.0,66.0,1.0,25000.0,0.0,55000.0,11.0,,
,,,,,,,,,,,,,,,,,,,,,,,25-07-2022,342,2022-07-25_07h51.23.226,tareaTDv3,2020.2.5,Win32,60,,,left,1.0,3.2136,0.0,31.0,31.0,10.0,1.0,10000.0,0.0,21000.0,31.0,,
,,,,,,,,,,,,,,,,,,,,,,,25-07-2022,342,2022-07-25_07h51.23.226,tareaTDv3,2020.2.5,Win32,60,,,right,0.0,4.6793,0.0,32.0,32.0,50.0,1.0,5000.0,0.0,15000.0,91.0,,
,,,,,,,,,,,,,,,,,,,,,,,25-07-2022,342,2022-07-25_07h51.23.226,tareaTDv3,2020.2.5,Win32,60,,,right,1.0,1.9917,0.0,33.0,33.0,64.0,1.0,25000.0,0.0,150000.0,4.0,,
,,,,,,,,,,,,,,,,,,,,,,,25-07-2022,342,2022-07-25_07h51.23.226,tareaTDv3,2020.2.5,Win32,60,,,left,1.0,3.87,0.0,34.0,34.0,81.0,1.0,25000.0,0.0,55000.0,90.0,,
,,,,,,,,,,,,,,,,,,,,,,,25-07-2022,342,2022-07-25_07h51.23.226,tareaTDv3,2020.2.5,Win32,60,,,right,1.0,5.7002,0.0,35.0,35.0,60.0,1.0,25000.0,0.0,35000.0,5.0,,
,,,,,,,,,,,,,,,,,,,,,,,25-07-2022,342,2022-07-25_07h51.23.226,tareaTDv3,2020.2.5,Win32,60,,,left,1.0,6.9452,0.0,36.0,36.0,57.0,1.0,5000.0,0.0,55000.0,151.0,,
,,,,,,,,,,,,,,,,,,,,,,,25-07-2022,342,2022-07-25_07h51.23.226,tareaTDv3,2020.2.5,Win32,60,,,right,1.0,3.1833,0.0,37.0,37.0,43.0,1.0,5000.0,0.0,106000.0,29.0,,
,,,,,,,,,,,,,,,,,,,,,,,25-07-2022,342,2022-07-25_07h51.23.226,tareaTDv3,2020.2.5,Win32,60,,,left,1.0,7.4075,0.0,38.0,38.0,18.0,1.0,10000.0,0.0,110000.0,60.0,,
,,,,,,,,,,,,,,,,,,,,,,,25-07-2022,342,2022-07-25_07h51.23.226,tareaTDv3,2020.2.5,Win32,60,,,right,1.0,1.6145,0.0,39.0,39.0,73.0,1.0,25000.0,0.0,125000.0,31.0,,
,,,,,,,,,,,,,,,,,,,,,,,25-07-2022,342,2022-07-25_07h51.23.226,tareaTDv3,2020.2.5,Win32,60,,,left,1.0,3.6225,0.0,40.0,40.0,61.0,1.0,25000.0,0.0,55000.0,6.0,,
,,,,,,,,,,,,,,,,,,,,,,,25-07-2022,342,2022-07-25_07h51.23.226,tareaTDv3,2020.2.5,Win32,60,,,right,1.0,1.2326,0.0,41.0,41.0,39.0,1.0,5000.0,0.0,149000.0,10.0,,
,,,,,,,,,,,,,,,,,,,,,,,25-07-2022,342,2022-07-25_07h51.23.226,tareaTDv3,2020.2.5,Win32,60,,,left,1.0,1.8926,0.0,42.0,42.0,80.0,1.0,25000.0,0.0,35000.0,90.0,,
,,,,,,,,,,,,,,,,,,,,,,,25-07-2022,342,2022-07-25_07h51.23.226,tareaTDv3,2020.2.5,Win32,60,,,right,1.0,1.8686,0.0,43.0,43.0,38.0,1.0,5000.0,0.0,104000.0,10.0,,
,,,,,,,,,,,,,,,,,,,,,,,25-07-2022,342,2022-07-25_07h51.23.226,tareaTDv3,2020.2.5,Win32,60,,,left,1.0,1.9982,0.0,44.0,44.0,11.0,1.0,10000.0,0.0,39000.0,29.0,,
,,,,,,,,,,,,,,,,,,,,,,,25-07-2022,342,2022-07-25_07h51.23.226,tareaTDv3,2020.2.5,Win32,60,,,left,1.0,4.5375,0.0,45.0,45.0,67.0,1.0,25000.0,0.0,75000.0,10.0,,
,,,,,,,,,,,,,,,,,,,,,,,25-07-2022,342,2022-07-25_07h51.23.226,tareaTDv3,2020.2.5,Win32,60,,,left,1.0,4.0193,0.0,46.0,46.0,69.0,1.0,25000.0,0.0,150000.0,9.0,,
,,,,,,,,,,,,,,,,,,,,,,,25-07-2022,342,2022-07-25_07h51.23.226,tareaTDv3,2020.2.5,Win32,60,,,left,1.0,7.6658,0.0,47.0,47.0,82.0,1.0,25000.0,0.0,75000.0,90.0,,
,,,,,,,,,,,,,,,,,,,,,,,25-07-2022,342,2022-07-25_07h51.23.226,tareaTDv3,2020.2.5,Win32,60,,,left,1.0,4.5893,0.0,48.0,48.0,62.0,1.0,25000.0,0.0,75000.0,5.0,,
,,,,,,,,,,,,,,,,,,,,,,,25-07-2022,342,2022-07-25_07h51.23.226,tareaTDv3,2020.2.5,Win32,60,,,left,1.0,3.0177,0.0,49.0,49.0,17.0,1.0,10000.0,0.0,60000.0,60.0,,
,,,,,,,,,,,,,,,,,,,,,,,25-07-2022,342,2022-07-25_07h51.23.226,tareaTDv3,2020.2.5,Win32,60,,,right,1.0,4.0653,0.0,50.0,50.0,35.0,1.0,5000.0,0.0,15000.0,11.0,,
,,,,,,,,,,,,,,,,,,,,,,,25-07-2022,342,2022-07-25_07h51.23.226,tareaTDv3,2020.2.5,Win32,60,,,left,0.0,3.471,0.0,51.0,51.0,85.0,1.0,25000.0,0.0,35000.0,150.0,,
,,,,,,,,,,,,,,,,,,,,,,,25-07-2022,342,2022-07-25_07h51.23.226,tareaTDv3,2020.2.5,Win32,60,,,right,0.0,1.5116,0.0,52.0,52.0,26.0,1.0,10000.0,0.0,39000.0,150.0,,
,,,,,,,,,,,,,,,,,,,,,,,25-07-2022,342,2022-07-25_07h51.23.226,tareaTDv3,2020.2.5,Win32,60,,,right,1.0,2.3767,0.0,53.0,53.0,30.0,1.0,5000.0,0.0,16000.0,4.0,,
,,,,,,,,,,,,,,,,,,,,,,,25-07-2022,342,2022-07-25_07h51.23.226,tareaTDv3,2020.2.5,Win32,60,,,left,1.0,2.1657,0.0,54.0,54.0,74.0,1.0,25000.0,0.0,150000.0,29.0,,
,,,,,,,,,,,,,,,,,,,,,,,25-07-2022,342,2022-07-25_07h51.23.226,tareaTDv3,2020.2.5,Win32,60,,,left,1.0,3.3578,0.0,55.0,55.0,51.0,1.0,5000.0,0.0,35000.0,89.0,,
,,,,,,,,,,,,,,,,,,,,,,,25-07-2022,342,2022-07-25_07h51.23.226,tareaTDv3,2020.2.5,Win32,60,,,left,1.0,1.6677,0.0,56.0,56.0,34.0,1.0,5000.0,0.0,151000.0,4.0,,
,,,,,,,,,,,,,,,,,,,,,,,25-07-2022,342,2022-07-25_07h51.23.226,tareaTDv3,2020.2.5,Win32,60,,,left,0.0,1.5708,0.0,57.0,57.0,75.0,1.0,25000.0,0.0,35000.0,60.0,,
,,,,,,,,,,,,,,,,,,,,,,,25-07-2022,342,2022-07-25_07h51.23.226,tareaTDv3,2020.2.5,Win32,60,,,right,1.0,0.9999,0.0,58.0,58.0,3.0,1.0,10000.0,0.0,109000.0,5.0,,
,,,,,,,,,,,,,,,,,,,,,,,25-07-2022,342,2022-07-25_07h51.23.226,tareaTDv3,2020.2.5,Win32,60,,,right,1.0,5.8275,0.0,59.0,59.0,88.0,1.0,25000.0,0.0,125000.0,149.0,,
,,,,,,,,,,,,,,,,,,,,,,,25-07-2022,342,2022-07-25_07h51.23.226,tareaTDv3,2020.2.5,Win32,60,,,right,1.0,0.9893,0.0,60.0,60.0,68.0,1.0,25000.0,0.0,125000.0,9.0,,
,,,,,,,,,,,,,,,,,,,,,,,25-07-2022,342,2022-07-25_07h51.23.226,tareaTDv3,2020.2.5,Win32,60,,,right,1.0,1.5025,0.0,61.0,61.0,48.0,1.0,5000.0,0.0,105000.0,60.0,,
,,,,,,,,,,,,,,,,,,,,,,,25-07-2022,342,2022-07-25_07h51.23.226,tareaTDv3,2020.2.5,Win32,60,,,right,0.0,3.3573,0.0,62.0,62.0,25.0,1.0,10000.0,0.0,10000.0,150.0,,
,,,,,,,,,,,,,,,,,,,,,,,25-07-2022,342,2022-07-25_07h51.23.226,tareaTDv3,2020.2.5,Win32,60,,,left,1.0,1.5854,0.0,63.0,63.0,59.0,1.0,5000.0,0.0,151000.0,150.0,,
,,,,,,,,,,,,,,,,,,,,,,,25-07-2022,342,2022-07-25_07h51.23.226,tareaTDv3,2020.2.5,Win32,60,,,left,1.0,3.6425,0.0,64.0,64.0,56.0,1.0,5000.0,0.0,35000.0,150.0,,
,,,,,,,,,,,,,,,,,,,,,,,25-07-2022,342,2022-07-25_07h51.23.226,tareaTDv3,2020.2.5,Win32,60,,,left,1.0,3.8756,0.0,65.0,65.0,41.0,1.0,5000.0,0.0,35000.0,31.0,,
,,,,,,,,,,,,,,,,,,,,,,,25-07-2022,342,2022-07-25_07h51.23.226,tareaTDv3,2020.2.5,Win32,60,,,right,1.0,1.4739,0.0,66.0,66.0,16.0,1.0,10000.0,0.0,39000.0,59.0,,
,,,,,,,,,,,,,,,,,,,,,,,25-07-2022,342,2022-07-25_07h51.23.226,tareaTDv3,2020.2.5,Win32,60,,,right,1.0,5.4628,0.0,67.0,67.0,19.0,1.0,10000.0,0.0,149000.0,61.0,,
,,,,,,,,,,,,,,,,,,,,,,,25-07-2022,342,2022-07-25_07h51.23.226,tareaTDv3,2020.2.5,Win32,60,,,right,1.0,1.2794,0.0,68.0,68.0,5.0,1.0,10000.0,0.0,19000.0,11.0,,
,,,,,,,,,,,,,,,,,,,,,,,25-07-2022,342,2022-07-25_07h51.23.226,tareaTDv3,2020.2.5,Win32,60,,,left,1.0,3.4726,0.0,69.0,69.0,65.0,1.0,25000.0,0.0,35000.0,11.0,,
,,,,,,,,,,,,,,,,,,,,,,,25-07-2022,342,2022-07-25_07h51.23.226,tareaTDv3,2020.2.5,Win32,60,,,right,1.0,3.5871,0.0,70.0,70.0,76.0,1.0,25000.0,0.0,55000.0,60.0,,
,,,,,,,,,,,,,,,,,,,,,,,25-07-2022,342,2022-07-25_07h51.23.226,tareaTDv3,2020.2.5,Win32,60,,,left,1.0,1.2816,0.0,71.0,71.0,63.0,1.0,25000.0,0.0,125000.0,4.0,,
,,,,,,,,,,,,,,,,,,,,,,,25-07-2022,342,2022-07-25_07h51.23.226,tareaTDv3,2020.2.5,Win32,60,,,right,1.0,1.1018,0.0,72.0,72.0,79.0,1.0,25000.0,0.0,150000.0,61.0,,
,,,,,,,,,,,,,,,,,,,,,,,25-07-2022,342,2022-07-25_07h51.23.226,tareaTDv3,2020.2.5,Win32,60,,,right,1.0,0.7667,0.0,73.0,73.0,47.0,1.0,5000.0,0.0,56000.0,60.0,,
,,,,,,,,,,,,,,,,,,,,,,,25-07-2022,342,2022-07-25_07h51.23.226,tareaTDv3,2020.2.5,Win32,60,,,right,1.0,0.8906,0.0,74.0,74.0,4.0,1.0,10000.0,0.0,150000.0,5.0,,
,,,,,,,,,,,,,,,,,,,,,,,25-07-2022,342,2022-07-25_07h51.23.226,tareaTDv3,2020.2.5,Win32,60,,,right,1.0,1.0802,0.0,75.0,75.0,29.0,1.0,10000.0,0.0,151000.0,151.0,,
,,,,,,,,,,,,,,,,,,,,,,,25-07-2022,342,2022-07-25_07h51.23.226,tareaTDv3,2020.2.5,Win32,60,,,right,0.0,1.704,0.0,76.0,76.0,55.0,1.0,5000.0,0.0,14000.0,149.0,,
,,,,,,,,,,,,,,,,,,,,,,,25-07-2022,342,2022-07-25_07h51.23.226,tareaTDv3,2020.2.5,Win32,60,,,right,1.0,0.9782,0.0,77.0,77.0,54.0,1.0,5000.0,0.0,150000.0,90.0,,
,,,,,,,,,,,,,,,,,,,,,,,25-07-2022,342,2022-07-25_07h51.23.226,tareaTDv3,2020.2.5,Win32,60,,,right,1.0,2.0605,0.0,78.0,78.0,58.0,1.0,5000.0,0.0,106000.0,152.0,,
,,,,,,,,,,,,,,,,,,,,,,,25-07-2022,342,2022-07-25_07h51.23.226,tareaTDv3,2020.2.5,Win32,60,,,right,1.0,1.2697,0.0,79.0,79.0,84.0,1.0,25000.0,0.0,150000.0,89.0,,
,,,,,,,,,,,,,,,,,,,,,,,25-07-2022,342,2022-07-25_07h51.23.226,tareaTDv3,2020.2.5,Win32,60,,,right,1.0,1.5316,0.0,80.0,80.0,28.0,1.0,10000.0,0.0,109000.0,149.0,,
,,,,,,,,,,,,,,,,,,,,,,,25-07-2022,342,2022-07-25_07h51.23.226,tareaTDv3,2020.2.5,Win32,60,,,left,1.0,1.4216,0.0,81.0,81.0,23.0,1.0,10000.0,0.0,110000.0,90.0,,
,,,,,,,,,,,,,,,,,,,,,,,25-07-2022,342,2022-07-25_07h51.23.226,tareaTDv3,2020.2.5,Win32,60,,,left,1.0,3.8139,0.0,82.0,82.0,8.0,1.0,10000.0,0.0,111000.0,10.0,,
,,,,,,,,,,,,,,,,,,,,,,,25-07-2022,342,2022-07-25_07h51.23.226,tareaTDv3,2020.2.5,Win32,60,,,left,1.0,4.7681,0.0,83.0,83.0,49.0,1.0,5000.0,0.0,149000.0,59.0,,
,,,,,,,,,,,,,,,,,,,,,,,25-07-2022,342,2022-07-25_07h51.23.226,tareaTDv3,2020.2.5,Win32,60,,,right,1.0,1.7817,0.0,84.0,84.0,89.0,1.0,25000.0,0.0,150000.0,150.0,,
,,,,,,,,,,,,,,,,,,,,,,,25-07-2022,342,2022-07-25_07h51.23.226,tareaTDv3,2020.2.5,Win32,60,,,right,1.0,2.2117,0.0,85.0,85.0,78.0,1.0,25000.0,0.0,125000.0,59.0,,
,,,,,,,,,,,,,,,,,,,,,,,25-07-2022,342,2022-07-25_07h51.23.226,tareaTDv3,2020.2.5,Win32,60,,,left,1.0,0.9402,0.0,86.0,86.0,36.0,1.0,5000.0,0.0,36000.0,9.0,,
,,,,,,,,,,,,,,,,,,,,,,,25-07-2022,342,2022-07-25_07h51.23.226,tareaTDv3,2020.2.5,Win32,60,,,left,1.0,2.3624,0.0,87.0,87.0,32.0,1.0,5000.0,0.0,54000.0,5.0,,
,,,,,,,,,,,,,,,,,,,,,,,25-07-2022,342,2022-07-25_07h51.23.226,tareaTDv3,2020.2.5,Win32,60,,,left,1.0,1.1655,0.0,88.0,88.0,13.0,1.0,10000.0,0.0,111000.0,30.0,,
,,,,,,,,,,,,,,,,,,,,,,,25-07-2022,342,2022-07-25_07h51.23.226,tareaTDv3,2020.2.5,Win32,60,,,left,1.0,0.4779,0.0,89.0,89.0,37.0,1.0,5000.0,0.0,56000.0,9.0,,
,,,,,,,,,,,,,,,,,,,,,,,25-07-2022,342,2022-07-25_07h51.23.226,tareaTDv3,2020.2.5,Win32,60,,,,,,,,,,,,,,,space,1.9594
