key1.keys,key1.rt,key2.keys,key2.rt,key2_2.keys,key2_2.rt,key2_3.keys,key2_3.rt,key3.keys,key3.rt,key4.keys,key4.rt,respP.keys,respP.corr,Practice.thisRepN,Practice.thisTrialN,Practice.thisN,Practice.thisIndex,Practice.ran,ssAmount,llAmount,llDelay,session,participant,date,expName,psychopyVersion,OS,frameRate,respP.rt,key5.keys,key5.rt,respT.keys,respT.corr,respT.rt,trials.thisRepN,trials.thisTrialN,trials.thisN,trials.thisIndex,trials.ran,ss_am,ss_del,ll_am,ll_del
space,2.8414,space,53.681235,space,4.895005,space,7.548955,left,9.625205,space,3.418165,,0.0,0.0,0.0,0.0,2.0,1.0,10000.0,19000.0,89.0,2,36,2020-11-13_09h49.57.744,tareaTDv3,2020.2.5,Win32,60,,,,,,,,,,,,,,,
,,,,,,,,,,,,right,1.0,0.0,1.0,1.0,0.0,1.0,10000.0,109000.0,9.0,2,36,2020-11-13_09h49.57.744,tareaTDv3,2020.2.5,Win32,60,5.925785,,,,,,,,,,,,,,
,,,,,,,,,,,,left,0.0,0.0,2.0,2.0,1.0,1.0,25000.0,35000.0,150.0,2,36,2020-11-13_09h49.57.744,tareaTDv3,2020.2.5,Win32,60,8.79274,,,,,,,,,,,,,,
,,,,,,,,,,,,,,,,,,,,,,2,36,2020-11-13_09h49.57.744,tareaTDv3,2020.2.5,Win32,60,,g,33.42946,right,1.0,4.95672,0.0,0.0,0.0,76.0,1.0,25000.0,0.0,55000.0,60.0
,,,,,,,,,,,,,,,,,,,,,,2,36,2020-11-13_09h49.57.744,tareaTDv3,2020.2.5,Win32,60,,,,right,0.0,6.785895,0.0,1.0,1.0,53.0,1.0,5000.0,0.0,104000.0,90.0
,,,,,,,,,,,,,,,,,,,,,,2,36,2020-11-13_09h49.57.744,tareaTDv3,2020.2.5,Win32,60,,,,left,1.0,4.184605,0.0,2.0,2.0,72.0,1.0,25000.0,0.0,75000.0,31.0
,,,,,,,,,,,,,,,,,,,,,,2,36,2020-11-13_09h49.57.744,tareaTDv3,2020.2.5,Win32,60,,,,right,1.0,4.369015,0.0,3.0,3.0,8.0,1.0,10000.0,0.0,111000.0,10.0
,,,,,,,,,,,,,,,,,,,,,,2,36,2020-11-13_09h49.57.744,tareaTDv3,2020.2.5,Win32,60,,,,left,1.0,5.406405,0.0,4.0,4.0,35.0,1.0,5000.0,0.0,15000.0,11.0
,,,,,,,,,,,,,,,,,,,,,,2,36,2020-11-13_09h49.57.744,tareaTDv3,2020.2.5,Win32,60,,,,left,1.0,2.967425,0.0,5.0,5.0,51.0,1.0,5000.0,0.0,35000.0,89.0
,,,,,,,,,,,,,,,,,,,,,,2,36,2020-11-13_09h49.57.744,tareaTDv3,2020.2.5,Win32,60,,,,right,0.0,2.937475,0.0,6.0,6.0,81.0,1.0,25000.0,0.0,55000.0,90.0
,,,,,,,,,,,,,,,,,,,,,,2,36,2020-11-13_09h49.57.744,tareaTDv3,2020.2.5,Win32,60,,,,left,1.0,5.03775,0.0,7.0,7.0,17.0,1.0,10000.0,0.0,60000.0,60.0
,,,,,,,,,,,,,,,,,,,,,,2,36,2020-11-13_09h49.57.744,tareaTDv3,2020.2.5,Win32,60,,,,right,0.0,6.772145,0.0,8.0,8.0,57.0,1.0,5000.0,0.0,55000.0,151.0
,,,,,,,,,,,,,,,,,,,,,,2,36,2020-11-13_09h49.57.744,tareaTDv3,2020.2.5,Win32,60,,,,left,0.0,9.88615,0.0,9.0,9.0,45.0,1.0,5000.0,0.0,15000.0,61.0
,,,,,,,,,,,,,,,,,,,,,,2,36,2020-11-13_09h49.57.744,tareaTDv3,2020.2.5,Win32,60,,,,left,0.0,3.417745,0.0,10.0,10.0,26.0,1.0,10000.0,0.0,39000.0,150.0
,,,,,,,,,,,,,,,,,,,,,,2,36,2020-11-13_09h49.57.744,tareaTDv3,2020.2.5,Win32,60,,,,left,0.0,3.836985,0.0,11.0,11.0,25.0,1.0,10000.0,0.0,10000.0,150.0
,,,,,,,,,,,,,,,,,,,,,,2,36,2020-11-13_09h49.57.744,tareaTDv3,2020.2.5,Win32,60,,,,left,1.0,4.951,0.0,12.0,12.0,52.0,1.0,5000.0,0.0,56000.0,89.0
,,,,,,,,,,,,,,,,,,,,,,2,36,2020-11-13_09h49.57.744,tareaTDv3,2020.2.5,Win32,60,,,,left,1.0,3.40961,0.0,13.0,13.0,63.0,1.0,25000.0,0.0,125000.0,4.0
,,,,,,,,,,,,,,,,,,,,,,2,36,2020-11-13_09h49.57.744,tareaTDv3,2020.2.5,Win32,60,,,,right,1.0,2.703745,0.0,14.0,14.0,7.0,1.0,10000.0,0.0,59000.0,9.0
,,,,,,,,,,,,,,,,,,,,,,2,36,2020-11-13_09h49.57.744,tareaTDv3,2020.2.5,Win32,60,,,,right,0.0,3.525475,0.0,15.0,15.0,27.0,1.0,10000.0,0.0,61000.0,150.0
,,,,,,,,,,,,,,,,,,,,,,2,36,2020-11-13_09h49.57.744,tareaTDv3,2020.2.5,Win32,60,,,,left,0.0,2.669365,0.0,16.0,16.0,50.0,1.0,5000.0,0.0,15000.0,91.0
,,,,,,,,,,,,,,,,,,,,,,2,36,2020-11-13_09h49.57.744,tareaTDv3,2020.2.5,Win32,60,,,,right,1.0,3.793025,0.0,17.0,17.0,19.0,1.0,10000.0,0.0,149000.0,61.0
,,,,,,,,,,,,,,,,,,,,,,2,36,2020-11-13_09h49.57.744,tareaTDv3,2020.2.5,Win32,60,,,,left,1.0,4.85638,0.0,18.0,18.0,68.0,1.0,25000.0,0.0,125000.0,9.0
,,,,,,,,,,,,,,,,,,,,,,2,36,2020-11-13_09h49.57.744,tareaTDv3,2020.2.5,Win32,60,,,,left,1.0,3.90255,0.0,19.0,19.0,54.0,1.0,5000.0,0.0,150000.0,90.0
,,,,,,,,,,,,,,,,,,,,,,2,36,2020-11-13_09h49.57.744,tareaTDv3,2020.2.5,Win32,60,,,,left,1.0,4.920435,0.0,20.0,20.0,69.0,1.0,25000.0,0.0,150000.0,9.0
,,,,,,,,,,,,,,,,,,,,,,2,36,2020-11-13_09h49.57.744,tareaTDv3,2020.2.5,Win32,60,,,,left,1.0,6.6351,0.0,21.0,21.0,79.0,1.0,25000.0,0.0,150000.0,61.0
,,,,,,,,,,,,,,,,,,,,,,2,36,2020-11-13_09h49.57.744,tareaTDv3,2020.2.5,Win32,60,,,,right,0.0,5.47707,0.0,22.0,22.0,87.0,1.0,25000.0,0.0,75000.0,151.0
,,,,,,,,,,,,,,,,,,,,,,2,36,2020-11-13_09h49.57.744,tareaTDv3,2020.2.5,Win32,60,,,,right,1.0,3.090145,0.0,23.0,23.0,10.0,1.0,10000.0,0.0,21000.0,31.0
,,,,,,,,,,,,,,,,,,,,,,2,36,2020-11-13_09h49.57.744,tareaTDv3,2020.2.5,Win32,60,,,,right,1.0,3.92087,0.0,24.0,24.0,39.0,1.0,5000.0,0.0,149000.0,10.0
,,,,,,,,,,,,,,,,,,,,,,2,36,2020-11-13_09h49.57.744,tareaTDv3,2020.2.5,Win32,60,,,,left,1.0,6.16918,0.0,25.0,25.0,73.0,1.0,25000.0,0.0,125000.0,31.0
,,,,,,,,,,,,,,,,,,,,,,2,36,2020-11-13_09h49.57.744,tareaTDv3,2020.2.5,Win32,60,,,,right,1.0,3.32619,0.0,26.0,26.0,3.0,1.0,10000.0,0.0,109000.0,5.0
,,,,,,,,,,,,,,,,,,,,,,2,36,2020-11-13_09h49.57.744,tareaTDv3,2020.2.5,Win32,60,,,,left,1.0,6.30482,0.0,27.0,27.0,58.0,1.0,5000.0,0.0,106000.0,152.0
,,,,,,,,,,,,,,,,,,,,,,2,36,2020-11-13_09h49.57.744,tareaTDv3,2020.2.5,Win32,60,,,,right,1.0,7.41175,0.0,28.0,28.0,62.0,1.0,25000.0,0.0,75000.0,5.0
,,,,,,,,,,,,,,,,,,,,,,2,36,2020-11-13_09h49.57.744,tareaTDv3,2020.2.5,Win32,60,,,,left,1.0,5.98765,0.0,29.0,29.0,2.0,1.0,10000.0,0.0,61000.0,4.0
,,,,,,,,,,,,,,,,,,,,,,2,36,2020-11-13_09h49.57.744,tareaTDv3,2020.2.5,Win32,60,,,,right,1.0,3.62148,0.0,30.0,30.0,60.0,1.0,25000.0,0.0,35000.0,5.0
,,,,,,,,,,,,,,,,,,,,,,2,36,2020-11-13_09h49.57.744,tareaTDv3,2020.2.5,Win32,60,,,,right,1.0,5.92697,0.0,31.0,31.0,77.0,1.0,25000.0,0.0,75000.0,59.0
,,,,,,,,,,,,,,,,,,,,,,2,36,2020-11-13_09h49.57.744,tareaTDv3,2020.2.5,Win32,60,,,,left,1.0,4.33507,0.0,32.0,32.0,41.0,1.0,5000.0,0.0,35000.0,31.0
,,,,,,,,,,,,,,,,,,,,,,2,36,2020-11-13_09h49.57.744,tareaTDv3,2020.2.5,Win32,60,,,,left,0.0,3.502635,0.0,33.0,33.0,80.0,1.0,25000.0,0.0,35000.0,90.0
,,,,,,,,,,,,,,,,,,,,,,2,36,2020-11-13_09h49.57.744,tareaTDv3,2020.2.5,Win32,60,,,,left,1.0,4.252255,0.0,34.0,34.0,24.0,1.0,10000.0,0.0,149000.0,89.0
,,,,,,,,,,,,,,,,,,,,,,2,36,2020-11-13_09h49.57.744,tareaTDv3,2020.2.5,Win32,60,,,,left,1.0,7.401035,0.0,35.0,35.0,21.0,1.0,10000.0,0.0,40000.0,91.0
,,,,,,,,,,,,,,,,,,,,,,2,36,2020-11-13_09h49.57.744,tareaTDv3,2020.2.5,Win32,60,,,,left,1.0,3.658275,0.0,36.0,36.0,30.0,1.0,5000.0,0.0,16000.0,4.0
,,,,,,,,,,,,,,,,,,,,,,2,36,2020-11-13_09h49.57.744,tareaTDv3,2020.2.5,Win32,60,,,,right,0.0,3.67917,0.0,37.0,37.0,85.0,1.0,25000.0,0.0,35000.0,150.0
,,,,,,,,,,,,,,,,,,,,,,2,36,2020-11-13_09h49.57.744,tareaTDv3,2020.2.5,Win32,60,,,,left,1.0,2.50281,0.0,38.0,38.0,13.0,1.0,10000.0,0.0,111000.0,30.0
,,,,,,,,,,,,,,,,,,,,,,2,36,2020-11-13_09h49.57.744,tareaTDv3,2020.2.5,Win32,60,,,,right,1.0,10.09923,0.0,39.0,39.0,23.0,1.0,10000.0,0.0,110000.0,90.0
,,,,,,,,,,,,,,,,,,,,,,2,36,2020-11-13_09h49.57.744,tareaTDv3,2020.2.5,Win32,60,,,,right,1.0,3.51195,0.0,40.0,40.0,78.0,1.0,25000.0,0.0,125000.0,59.0
,,,,,,,,,,,,,,,,,,,,,,2,36,2020-11-13_09h49.57.744,tareaTDv3,2020.2.5,Win32,60,,,,left,1.0,2.61743,0.0,41.0,41.0,12.0,1.0,10000.0,0.0,60000.0,29.0
,,,,,,,,,,,,,,,,,,,,,,2,36,2020-11-13_09h49.57.744,tareaTDv3,2020.2.5,Win32,60,,,,right,0.0,6.07525,0.0,42.0,42.0,89.0,1.0,25000.0,0.0,150000.0,150.0
,,,,,,,,,,,,,,,,,,,,,,2,36,2020-11-13_09h49.57.744,tareaTDv3,2020.2.5,Win32,60,,,,left,1.0,1.958485,0.0,43.0,43.0,44.0,1.0,5000.0,0.0,150000.0,30.0
,,,,,,,,,,,,,,,,,,,,,,2,36,2020-11-13_09h49.57.744,tareaTDv3,2020.2.5,Win32,60,,,,right,1.0,4.87842,0.0,44.0,44.0,33.0,1.0,5000.0,0.0,104000.0,5.0
,,,,,,,,,,,,,,,,,,,,,,2,36,2020-11-13_09h49.57.744,tareaTDv3,2020.2.5,Win32,60,,,,left,1.0,4.95752,0.0,45.0,45.0,32.0,1.0,5000.0,0.0,54000.0,5.0
,,,,,,,,,,,,,,,,,,,,,,2,36,2020-11-13_09h49.57.744,tareaTDv3,2020.2.5,Win32,60,,,,right,1.0,1.51738,0.0,46.0,46.0,43.0,1.0,5000.0,0.0,106000.0,29.0
,,,,,,,,,,,,,,,,,,,,,,2,36,2020-11-13_09h49.57.744,tareaTDv3,2020.2.5,Win32,60,,,,left,1.0,3.467975,0.0,47.0,47.0,1.0,1.0,10000.0,0.0,39000.0,6.0
,,,,,,,,,,,,,,,,,,,,,,2,36,2020-11-13_09h49.57.744,tareaTDv3,2020.2.5,Win32,60,,,,left,1.0,5.58371,0.0,48.0,48.0,83.0,1.0,25000.0,0.0,125000.0,89.0
,,,,,,,,,,,,,,,,,,,,,,2,36,2020-11-13_09h49.57.744,tareaTDv3,2020.2.5,Win32,60,,,,right,1.0,1.51115,0.0,49.0,49.0,37.0,1.0,5000.0,0.0,56000.0,9.0
,,,,,,,,,,,,,,,,,,,,,,2,36,2020-11-13_09h49.57.744,tareaTDv3,2020.2.5,Win32,60,,,,right,1.0,3.73716,0.0,50.0,50.0,70.0,1.0,25000.0,0.0,35000.0,30.0
,,,,,,,,,,,,,,,,,,,,,,2,36,2020-11-13_09h49.57.744,tareaTDv3,2020.2.5,Win32,60,,,,left,1.0,3.836485,0.0,51.0,51.0,82.0,1.0,25000.0,0.0,75000.0,90.0
,,,,,,,,,,,,,,,,,,,,,,2,36,2020-11-13_09h49.57.744,tareaTDv3,2020.2.5,Win32,60,,,,right,1.0,7.55905,0.0,52.0,52.0,84.0,1.0,25000.0,0.0,150000.0,89.0
,,,,,,,,,,,,,,,,,,,,,,2,36,2020-11-13_09h49.57.744,tareaTDv3,2020.2.5,Win32,60,,,,right,0.0,6.72652,0.0,53.0,53.0,15.0,1.0,10000.0,0.0,20000.0,59.0
,,,,,,,,,,,,,,,,,,,,,,2,36,2020-11-13_09h49.57.744,tareaTDv3,2020.2.5,Win32,60,,,,right,1.0,2.794075,0.0,54.0,54.0,48.0,1.0,5000.0,0.0,105000.0,60.0
,,,,,,,,,,,,,,,,,,,,,,2,36,2020-11-13_09h49.57.744,tareaTDv3,2020.2.5,Win32,60,,,,left,1.0,3.08242,0.0,55.0,55.0,64.0,1.0,25000.0,0.0,150000.0,4.0
,,,,,,,,,,,,,,,,,,,,,,2,36,2020-11-13_09h49.57.744,tareaTDv3,2020.2.5,Win32,60,,,,left,1.0,3.259755,0.0,56.0,56.0,18.0,1.0,10000.0,0.0,110000.0,60.0
,,,,,,,,,,,,,,,,,,,,,,2,36,2020-11-13_09h49.57.744,tareaTDv3,2020.2.5,Win32,60,,,,right,1.0,1.56869,0.0,57.0,57.0,14.0,1.0,10000.0,0.0,150000.0,30.0
,,,,,,,,,,,,,,,,,,,,,,2,36,2020-11-13_09h49.57.744,tareaTDv3,2020.2.5,Win32,60,,,,right,0.0,2.724545,0.0,58.0,58.0,28.0,1.0,10000.0,0.0,109000.0,149.0
,,,,,,,,,,,,,,,,,,,,,,2,36,2020-11-13_09h49.57.744,tareaTDv3,2020.2.5,Win32,60,,,,left,0.0,3.871035,0.0,59.0,59.0,75.0,1.0,25000.0,0.0,35000.0,60.0
,,,,,,,,,,,,,,,,,,,,,,2,36,2020-11-13_09h49.57.744,tareaTDv3,2020.2.5,Win32,60,,,,left,1.0,2.18323,0.0,60.0,60.0,36.0,1.0,5000.0,0.0,36000.0,9.0
,,,,,,,,,,,,,,,,,,,,,,2,36,2020-11-13_09h49.57.744,tareaTDv3,2020.2.5,Win32,60,,,,right,0.0,7.485575,0.0,61.0,61.0,56.0,1.0,5000.0,0.0,35000.0,150.0
,,,,,,,,,,,,,,,,,,,,,,2,36,2020-11-13_09h49.57.744,tareaTDv3,2020.2.5,Win32,60,,,,right,0.0,5.785015,0.0,62.0,62.0,65.0,1.0,25000.0,0.0,35000.0,11.0
,,,,,,,,,,,,,,,,,,,,,,2,36,2020-11-13_09h49.57.744,tareaTDv3,2020.2.5,Win32,60,,,,right,0.0,10.41886,0.0,63.0,63.0,88.0,1.0,25000.0,0.0,125000.0,149.0
,,,,,,,,,,,,,,,,,,,,,,2,36,2020-11-13_09h49.57.744,tareaTDv3,2020.2.5,Win32,60,,,,right,0.0,2.98044,0.0,64.0,64.0,55.0,1.0,5000.0,0.0,14000.0,149.0
,,,,,,,,,,,,,,,,,,,,,,2,36,2020-11-13_09h49.57.744,tareaTDv3,2020.2.5,Win32,60,,,,left,1.0,4.07275,0.0,65.0,65.0,61.0,1.0,25000.0,0.0,55000.0,6.0
,,,,,,,,,,,,,,,,,,,,,,2,36,2020-11-13_09h49.57.744,tareaTDv3,2020.2.5,Win32,60,,,,right,1.0,4.62369,0.0,66.0,66.0,5.0,1.0,10000.0,0.0,19000.0,11.0
,,,,,,,,,,,,,,,,,,,,,,2,36,2020-11-13_09h49.57.744,tareaTDv3,2020.2.5,Win32,60,,,,left,1.0,1.56269,0.0,67.0,67.0,74.0,1.0,25000.0,0.0,150000.0,29.0
,,,,,,,,,,,,,,,,,,,,,,2,36,2020-11-13_09h49.57.744,tareaTDv3,2020.2.5,Win32,60,,,,right,0.0,9.345905,0.0,68.0,68.0,46.0,1.0,5000.0,0.0,36000.0,61.0
,,,,,,,,,,,,,,,,,,,,,,2,36,2020-11-13_09h49.57.744,tareaTDv3,2020.2.5,Win32,60,,,,right,0.0,1.451755,0.0,69.0,69.0,86.0,1.0,25000.0,0.0,55000.0,151.0
,,,,,,,,,,,,,,,,,,,,,,2,36,2020-11-13_09h49.57.744,tareaTDv3,2020.2.5,Win32,60,,,,left,1.0,12.30506,0.0,70.0,70.0,47.0,1.0,5000.0,0.0,56000.0,60.0
,,,,,,,,,,,,,,,,,,,,,,2,36,2020-11-13_09h49.57.744,tareaTDv3,2020.2.5,Win32,60,,,,left,0.0,2.124425,0.0,71.0,71.0,40.0,1.0,5000.0,0.0,14000.0,31.0
,,,,,,,,,,,,,,,,,,,,,,2,36,2020-11-13_09h49.57.744,tareaTDv3,2020.2.5,Win32,60,,,,right,1.0,3.15228,0.0,72.0,72.0,29.0,1.0,10000.0,0.0,151000.0,151.0
,,,,,,,,,,,,,,,,,,,,,,2,36,2020-11-13_09h49.57.744,tareaTDv3,2020.2.5,Win32,60,,,,left,1.0,3.448595,0.0,73.0,73.0,31.0,1.0,5000.0,0.0,35000.0,6.0
,,,,,,,,,,,,,,,,,,,,,,2,36,2020-11-13_09h49.57.744,tareaTDv3,2020.2.5,Win32,60,,,,left,1.0,1.477045,0.0,74.0,74.0,9.0,1.0,10000.0,0.0,151000.0,11.0
,,,,,,,,,,,,,,,,,,,,,,2,36,2020-11-13_09h49.57.744,tareaTDv3,2020.2.5,Win32,60,,,,right,1.0,7.767325,0.0,75.0,75.0,66.0,1.0,25000.0,0.0,55000.0,11.0
,,,,,,,,,,,,,,,,,,,,,,2,36,2020-11-13_09h49.57.744,tareaTDv3,2020.2.5,Win32,60,,,,right,1.0,3.35929,0.0,76.0,76.0,42.0,1.0,5000.0,0.0,56000.0,29.0
,,,,,,,,,,,,,,,,,,,,,,2,36,2020-11-13_09h49.57.744,tareaTDv3,2020.2.5,Win32,60,,,,left,1.0,3.090305,0.0,77.0,77.0,67.0,1.0,25000.0,0.0,75000.0,10.0
,,,,,,,,,,,,,,,,,,,,,,2,36,2020-11-13_09h49.57.744,tareaTDv3,2020.2.5,Win32,60,,,,left,1.0,2.539345,0.0,78.0,78.0,59.0,1.0,5000.0,0.0,151000.0,150.0
,,,,,,,,,,,,,,,,,,,,,,2,36,2020-11-13_09h49.57.744,tareaTDv3,2020.2.5,Win32,60,,,,right,1.0,2.25985,0.0,79.0,79.0,0.0,1.0,10000.0,0.0,20000.0,5.0
,,,,,,,,,,,,,,,,,,,,,,2,36,2020-11-13_09h49.57.744,tareaTDv3,2020.2.5,Win32,60,,,,right,0.0,3.88177,0.0,80.0,80.0,22.0,1.0,10000.0,0.0,61000.0,89.0
,,,,,,,,,,,,,,,,,,,,,,2,36,2020-11-13_09h49.57.744,tareaTDv3,2020.2.5,Win32,60,,,,left,1.0,2.241485,0.0,81.0,81.0,38.0,1.0,5000.0,0.0,104000.0,10.0
,,,,,,,,,,,,,,,,,,,,,,2,36,2020-11-13_09h49.57.744,tareaTDv3,2020.2.5,Win32,60,,,,right,0.0,1.92067,0.0,82.0,82.0,20.0,1.0,10000.0,0.0,20000.0,90.0
,,,,,,,,,,,,,,,,,,,,,,2,36,2020-11-13_09h49.57.744,tareaTDv3,2020.2.5,Win32,60,,,,right,1.0,2.335825,0.0,83.0,83.0,71.0,1.0,25000.0,0.0,55000.0,30.0
,,,,,,,,,,,,,,,,,,,,,,2,36,2020-11-13_09h49.57.744,tareaTDv3,2020.2.5,Win32,60,,,,left,1.0,1.02425,0.0,84.0,84.0,4.0,1.0,10000.0,0.0,150000.0,5.0
,,,,,,,,,,,,,,,,,,,,,,2,36,2020-11-13_09h49.57.744,tareaTDv3,2020.2.5,Win32,60,,,,left,1.0,1.234715,0.0,85.0,85.0,11.0,1.0,10000.0,0.0,39000.0,29.0
,,,,,,,,,,,,,,,,,,,,,,2,36,2020-11-13_09h49.57.744,tareaTDv3,2020.2.5,Win32,60,,,,right,1.0,1.425385,0.0,86.0,86.0,34.0,1.0,5000.0,0.0,151000.0,4.0
,,,,,,,,,,,,,,,,,,,,,,2,36,2020-11-13_09h49.57.744,tareaTDv3,2020.2.5,Win32,60,,,,right,1.0,1.342035,0.0,87.0,87.0,6.0,1.0,10000.0,0.0,40000.0,10.0
,,,,,,,,,,,,,,,,,,,,,,2,36,2020-11-13_09h49.57.744,tareaTDv3,2020.2.5,Win32,60,,,,left,1.0,1.10441,0.0,88.0,88.0,49.0,1.0,5000.0,0.0,149000.0,59.0
,,,,,,,,,,,,,,,,,,,,,,2,36,2020-11-13_09h49.57.744,tareaTDv3,2020.2.5,Win32,60,,,,right,0.0,1.874915,0.0,89.0,89.0,16.0,1.0,10000.0,0.0,39000.0,59.0
