key1.keys,key1.rt,key2.keys,key2.rt,key2_2.keys,key2_2.rt,key2_3.keys,key2_3.rt,key3.keys,key3.rt,key4.keys,key4.rt,respP.keys,respP.corr,respP.rt,Practice.thisRepN,Practice.thisTrialN,Practice.thisN,Practice.thisIndex,Practice.ran,ssAmount,llAmount,llDelay,session,participant,date,expName,psychopyVersion,OS,frameRate,key5.keys,key5.rt,respT.keys,respT.corr,respT.rt,trials.thisRepN,trials.thisTrialN,trials.thisN,trials.thisIndex,trials.ran,ss_am,ss_del,ll_am,ll_del
space,4.4961,space,12.7798,space,24.7784,space,3.0584,right,17.3724,space,1.4415,left,1.0,7.1104,0.0,0.0,0.0,0.0,1.0,10000.0,109000.0,9.0,2,440,2022-09-07_07h37.22.348,tareaTDv3,2020.2.5,Win32,60,,,,,,,,,,,,,,
,,,,,,,,,,,,right,0.0,3.5429,0.0,1.0,1.0,1.0,1.0,25000.0,35000.0,150.0,2,440,2022-09-07_07h37.22.348,tareaTDv3,2020.2.5,Win32,60,,,,,,,,,,,,,,
,,,,,,,,,,,,left,0.0,3.2811,0.0,2.0,2.0,2.0,1.0,10000.0,19000.0,89.0,2,440,2022-09-07_07h37.22.348,tareaTDv3,2020.2.5,Win32,60,,,,,,,,,,,,,,
,,,,,,,,,,,,,,,,,,,,,,,2,440,2022-09-07_07h37.22.348,tareaTDv3,2020.2.5,Win32,60,g,53.7862,left,1.0,3.231,0.0,0.0,0.0,7.0,1.0,10000.0,0.0,59000.0,9.0
,,,,,,,,,,,,,,,,,,,,,,,2,440,2022-09-07_07h37.22.348,tareaTDv3,2020.2.5,Win32,60,,,right,0.0,7.3596,0.0,1.0,1.0,27.0,1.0,10000.0,0.0,61000.0,150.0
,,,,,,,,,,,,,,,,,,,,,,,2,440,2022-09-07_07h37.22.348,tareaTDv3,2020.2.5,Win32,60,,,right,1.0,5.8647,0.0,2.0,2.0,39.0,1.0,5000.0,0.0,149000.0,10.0
,,,,,,,,,,,,,,,,,,,,,,,2,440,2022-09-07_07h37.22.348,tareaTDv3,2020.2.5,Win32,60,,,right,1.0,2.7973,0.0,3.0,3.0,60.0,1.0,25000.0,0.0,35000.0,5.0
,,,,,,,,,,,,,,,,,,,,,,,2,440,2022-09-07_07h37.22.348,tareaTDv3,2020.2.5,Win32,60,,,left,1.0,10.0504,0.0,4.0,4.0,24.0,1.0,10000.0,0.0,149000.0,89.0
,,,,,,,,,,,,,,,,,,,,,,,2,440,2022-09-07_07h37.22.348,tareaTDv3,2020.2.5,Win32,60,,,right,1.0,6.8657,0.0,5.0,5.0,84.0,1.0,25000.0,0.0,150000.0,89.0
,,,,,,,,,,,,,,,,,,,,,,,2,440,2022-09-07_07h37.22.348,tareaTDv3,2020.2.5,Win32,60,,,right,1.0,3.2471,0.0,6.0,6.0,4.0,1.0,10000.0,0.0,150000.0,5.0
,,,,,,,,,,,,,,,,,,,,,,,2,440,2022-09-07_07h37.22.348,tareaTDv3,2020.2.5,Win32,60,,,left,0.0,1.7215,0.0,7.0,7.0,65.0,1.0,25000.0,0.0,35000.0,11.0
,,,,,,,,,,,,,,,,,,,,,,,2,440,2022-09-07_07h37.22.348,tareaTDv3,2020.2.5,Win32,60,,,right,1.0,3.4884,0.0,8.0,8.0,57.0,1.0,5000.0,0.0,55000.0,151.0
,,,,,,,,,,,,,,,,,,,,,,,2,440,2022-09-07_07h37.22.348,tareaTDv3,2020.2.5,Win32,60,,,right,1.0,3.3227,0.0,9.0,9.0,44.0,1.0,5000.0,0.0,150000.0,30.0
,,,,,,,,,,,,,,,,,,,,,,,2,440,2022-09-07_07h37.22.348,tareaTDv3,2020.2.5,Win32,60,,,right,1.0,3.6316,0.0,10.0,10.0,43.0,1.0,5000.0,0.0,106000.0,29.0
,,,,,,,,,,,,,,,,,,,,,,,2,440,2022-09-07_07h37.22.348,tareaTDv3,2020.2.5,Win32,60,,,right,0.0,2.3241,0.0,11.0,11.0,88.0,1.0,25000.0,0.0,125000.0,149.0
,,,,,,,,,,,,,,,,,,,,,,,2,440,2022-09-07_07h37.22.348,tareaTDv3,2020.2.5,Win32,60,,,left,0.0,1.5318,0.0,12.0,12.0,20.0,1.0,10000.0,0.0,20000.0,90.0
,,,,,,,,,,,,,,,,,,,,,,,2,440,2022-09-07_07h37.22.348,tareaTDv3,2020.2.5,Win32,60,,,left,1.0,2.0872,0.0,13.0,13.0,36.0,1.0,5000.0,0.0,36000.0,9.0
,,,,,,,,,,,,,,,,,,,,,,,2,440,2022-09-07_07h37.22.348,tareaTDv3,2020.2.5,Win32,60,,,right,0.0,1.8361,0.0,14.0,14.0,87.0,1.0,25000.0,0.0,75000.0,151.0
,,,,,,,,,,,,,,,,,,,,,,,2,440,2022-09-07_07h37.22.348,tareaTDv3,2020.2.5,Win32,60,,,right,0.0,3.0889,0.0,15.0,15.0,17.0,1.0,10000.0,0.0,60000.0,60.0
,,,,,,,,,,,,,,,,,,,,,,,2,440,2022-09-07_07h37.22.348,tareaTDv3,2020.2.5,Win32,60,,,left,1.0,9.7191,0.0,16.0,16.0,83.0,1.0,25000.0,0.0,125000.0,89.0
,,,,,,,,,,,,,,,,,,,,,,,2,440,2022-09-07_07h37.22.348,tareaTDv3,2020.2.5,Win32,60,,,left,1.0,2.8356,0.0,17.0,17.0,66.0,1.0,25000.0,0.0,55000.0,11.0
,,,,,,,,,,,,,,,,,,,,,,,2,440,2022-09-07_07h37.22.348,tareaTDv3,2020.2.5,Win32,60,,,left,1.0,5.2572,0.0,18.0,18.0,31.0,1.0,5000.0,0.0,35000.0,6.0
,,,,,,,,,,,,,,,,,,,,,,,2,440,2022-09-07_07h37.22.348,tareaTDv3,2020.2.5,Win32,60,,,left,1.0,3.0881,0.0,19.0,19.0,18.0,1.0,10000.0,0.0,110000.0,60.0
,,,,,,,,,,,,,,,,,,,,,,,2,440,2022-09-07_07h37.22.348,tareaTDv3,2020.2.5,Win32,60,,,right,1.0,4.9993,0.0,20.0,20.0,29.0,1.0,10000.0,0.0,151000.0,151.0
,,,,,,,,,,,,,,,,,,,,,,,2,440,2022-09-07_07h37.22.348,tareaTDv3,2020.2.5,Win32,60,,,left,1.0,2.3895,0.0,21.0,21.0,64.0,1.0,25000.0,0.0,150000.0,4.0
,,,,,,,,,,,,,,,,,,,,,,,2,440,2022-09-07_07h37.22.348,tareaTDv3,2020.2.5,Win32,60,,,left,0.0,3.0054,0.0,22.0,22.0,25.0,1.0,10000.0,0.0,10000.0,150.0
,,,,,,,,,,,,,,,,,,,,,,,2,440,2022-09-07_07h37.22.348,tareaTDv3,2020.2.5,Win32,60,,,right,0.0,2.0984,0.0,23.0,23.0,72.0,1.0,25000.0,0.0,75000.0,31.0
,,,,,,,,,,,,,,,,,,,,,,,2,440,2022-09-07_07h37.22.348,tareaTDv3,2020.2.5,Win32,60,,,right,1.0,1.5826,0.0,24.0,24.0,9.0,1.0,10000.0,0.0,151000.0,11.0
,,,,,,,,,,,,,,,,,,,,,,,2,440,2022-09-07_07h37.22.348,tareaTDv3,2020.2.5,Win32,60,,,right,1.0,3.0532,0.0,25.0,25.0,1.0,1.0,10000.0,0.0,39000.0,6.0
,,,,,,,,,,,,,,,,,,,,,,,2,440,2022-09-07_07h37.22.348,tareaTDv3,2020.2.5,Win32,60,,,left,0.0,3.1808,0.0,26.0,26.0,80.0,1.0,25000.0,0.0,35000.0,90.0
,,,,,,,,,,,,,,,,,,,,,,,2,440,2022-09-07_07h37.22.348,tareaTDv3,2020.2.5,Win32,60,,,right,1.0,3.0139,0.0,27.0,27.0,13.0,1.0,10000.0,0.0,111000.0,30.0
,,,,,,,,,,,,,,,,,,,,,,,2,440,2022-09-07_07h37.22.348,tareaTDv3,2020.2.5,Win32,60,,,left,1.0,3.2482,0.0,28.0,28.0,61.0,1.0,25000.0,0.0,55000.0,6.0
,,,,,,,,,,,,,,,,,,,,,,,2,440,2022-09-07_07h37.22.348,tareaTDv3,2020.2.5,Win32,60,,,left,1.0,1.913,0.0,29.0,29.0,34.0,1.0,5000.0,0.0,151000.0,4.0
,,,,,,,,,,,,,,,,,,,,,,,2,440,2022-09-07_07h37.22.348,tareaTDv3,2020.2.5,Win32,60,,,right,0.0,4.5508,0.0,30.0,30.0,28.0,1.0,10000.0,0.0,109000.0,149.0
,,,,,,,,,,,,,,,,,,,,,,,2,440,2022-09-07_07h37.22.348,tareaTDv3,2020.2.5,Win32,60,,,right,1.0,1.2605,0.0,31.0,31.0,63.0,1.0,25000.0,0.0,125000.0,4.0
,,,,,,,,,,,,,,,,,,,,,,,2,440,2022-09-07_07h37.22.348,tareaTDv3,2020.2.5,Win32,60,,,left,1.0,2.5863,0.0,32.0,32.0,58.0,1.0,5000.0,0.0,106000.0,152.0
,,,,,,,,,,,,,,,,,,,,,,,2,440,2022-09-07_07h37.22.348,tareaTDv3,2020.2.5,Win32,60,,,left,0.0,1.6766,0.0,33.0,33.0,70.0,1.0,25000.0,0.0,35000.0,30.0
,,,,,,,,,,,,,,,,,,,,,,,2,440,2022-09-07_07h37.22.348,tareaTDv3,2020.2.5,Win32,60,,,right,0.0,1.9538,0.0,34.0,34.0,75.0,1.0,25000.0,0.0,35000.0,60.0
,,,,,,,,,,,,,,,,,,,,,,,2,440,2022-09-07_07h37.22.348,tareaTDv3,2020.2.5,Win32,60,,,left,1.0,2.9012,0.0,35.0,35.0,46.0,1.0,5000.0,0.0,36000.0,61.0
,,,,,,,,,,,,,,,,,,,,,,,2,440,2022-09-07_07h37.22.348,tareaTDv3,2020.2.5,Win32,60,,,left,0.0,3.8692,0.0,36.0,36.0,82.0,1.0,25000.0,0.0,75000.0,90.0
,,,,,,,,,,,,,,,,,,,,,,,2,440,2022-09-07_07h37.22.348,tareaTDv3,2020.2.5,Win32,60,,,right,1.0,1.433,0.0,37.0,37.0,74.0,1.0,25000.0,0.0,150000.0,29.0
,,,,,,,,,,,,,,,,,,,,,,,2,440,2022-09-07_07h37.22.348,tareaTDv3,2020.2.5,Win32,60,,,right,1.0,1.7549,0.0,38.0,38.0,41.0,1.0,5000.0,0.0,35000.0,31.0
,,,,,,,,,,,,,,,,,,,,,,,2,440,2022-09-07_07h37.22.348,tareaTDv3,2020.2.5,Win32,60,,,right,1.0,2.062,0.0,39.0,39.0,8.0,1.0,10000.0,0.0,111000.0,10.0
,,,,,,,,,,,,,,,,,,,,,,,2,440,2022-09-07_07h37.22.348,tareaTDv3,2020.2.5,Win32,60,,,right,1.0,5.7688,0.0,40.0,40.0,54.0,1.0,5000.0,0.0,150000.0,90.0
,,,,,,,,,,,,,,,,,,,,,,,2,440,2022-09-07_07h37.22.348,tareaTDv3,2020.2.5,Win32,60,,,left,1.0,4.2249,0.0,41.0,41.0,3.0,1.0,10000.0,0.0,109000.0,5.0
,,,,,,,,,,,,,,,,,,,,,,,2,440,2022-09-07_07h37.22.348,tareaTDv3,2020.2.5,Win32,60,,,left,0.0,3.1394,0.0,42.0,42.0,77.0,1.0,25000.0,0.0,75000.0,59.0
,,,,,,,,,,,,,,,,,,,,,,,2,440,2022-09-07_07h37.22.348,tareaTDv3,2020.2.5,Win32,60,,,left,0.0,7.5872,0.0,43.0,43.0,45.0,1.0,5000.0,0.0,15000.0,61.0
,,,,,,,,,,,,,,,,,,,,,,,2,440,2022-09-07_07h37.22.348,tareaTDv3,2020.2.5,Win32,60,,,right,1.0,3.4733,0.0,44.0,44.0,68.0,1.0,25000.0,0.0,125000.0,9.0
,,,,,,,,,,,,,,,,,,,,,,,2,440,2022-09-07_07h37.22.348,tareaTDv3,2020.2.5,Win32,60,,,right,0.0,2.016,0.0,45.0,45.0,56.0,1.0,5000.0,0.0,35000.0,150.0
,,,,,,,,,,,,,,,,,,,,,,,2,440,2022-09-07_07h37.22.348,tareaTDv3,2020.2.5,Win32,60,,,right,1.0,1.9897,0.0,46.0,46.0,0.0,1.0,10000.0,0.0,20000.0,5.0
,,,,,,,,,,,,,,,,,,,,,,,2,440,2022-09-07_07h37.22.348,tareaTDv3,2020.2.5,Win32,60,,,right,0.0,7.3931,0.0,47.0,47.0,26.0,1.0,10000.0,0.0,39000.0,150.0
,,,,,,,,,,,,,,,,,,,,,,,2,440,2022-09-07_07h37.22.348,tareaTDv3,2020.2.5,Win32,60,,,left,1.0,1.7714,0.0,48.0,48.0,38.0,1.0,5000.0,0.0,104000.0,10.0
,,,,,,,,,,,,,,,,,,,,,,,2,440,2022-09-07_07h37.22.348,tareaTDv3,2020.2.5,Win32,60,,,right,0.0,2.1687,0.0,49.0,49.0,5.0,1.0,10000.0,0.0,19000.0,11.0
,,,,,,,,,,,,,,,,,,,,,,,2,440,2022-09-07_07h37.22.348,tareaTDv3,2020.2.5,Win32,60,,,right,0.0,2.1741,0.0,50.0,50.0,40.0,1.0,5000.0,0.0,14000.0,31.0
,,,,,,,,,,,,,,,,,,,,,,,2,440,2022-09-07_07h37.22.348,tareaTDv3,2020.2.5,Win32,60,,,left,0.0,2.3157,0.0,51.0,51.0,71.0,1.0,25000.0,0.0,55000.0,30.0
,,,,,,,,,,,,,,,,,,,,,,,2,440,2022-09-07_07h37.22.348,tareaTDv3,2020.2.5,Win32,60,,,right,0.0,1.7561,0.0,52.0,52.0,55.0,1.0,5000.0,0.0,14000.0,149.0
,,,,,,,,,,,,,,,,,,,,,,,2,440,2022-09-07_07h37.22.348,tareaTDv3,2020.2.5,Win32,60,,,right,1.0,2.7209,0.0,53.0,53.0,48.0,1.0,5000.0,0.0,105000.0,60.0
,,,,,,,,,,,,,,,,,,,,,,,2,440,2022-09-07_07h37.22.348,tareaTDv3,2020.2.5,Win32,60,,,right,1.0,3.2369,0.0,54.0,54.0,35.0,1.0,5000.0,0.0,15000.0,11.0
,,,,,,,,,,,,,,,,,,,,,,,2,440,2022-09-07_07h37.22.348,tareaTDv3,2020.2.5,Win32,60,,,right,0.0,2.2622,0.0,55.0,55.0,15.0,1.0,10000.0,0.0,20000.0,59.0
,,,,,,,,,,,,,,,,,,,,,,,2,440,2022-09-07_07h37.22.348,tareaTDv3,2020.2.5,Win32,60,,,left,1.0,3.251,0.0,56.0,56.0,59.0,1.0,5000.0,0.0,151000.0,150.0
,,,,,,,,,,,,,,,,,,,,,,,2,440,2022-09-07_07h37.22.348,tareaTDv3,2020.2.5,Win32,60,,,left,0.0,1.3989,0.0,57.0,57.0,50.0,1.0,5000.0,0.0,15000.0,91.0
,,,,,,,,,,,,,,,,,,,,,,,2,440,2022-09-07_07h37.22.348,tareaTDv3,2020.2.5,Win32,60,,,left,1.0,0.8562,0.0,58.0,58.0,33.0,1.0,5000.0,0.0,104000.0,5.0
,,,,,,,,,,,,,,,,,,,,,,,2,440,2022-09-07_07h37.22.348,tareaTDv3,2020.2.5,Win32,60,,,left,1.0,1.1641,0.0,59.0,59.0,37.0,1.0,5000.0,0.0,56000.0,9.0
,,,,,,,,,,,,,,,,,,,,,,,2,440,2022-09-07_07h37.22.348,tareaTDv3,2020.2.5,Win32,60,,,left,1.0,2.5144,0.0,60.0,60.0,67.0,1.0,25000.0,0.0,75000.0,10.0
,,,,,,,,,,,,,,,,,,,,,,,2,440,2022-09-07_07h37.22.348,tareaTDv3,2020.2.5,Win32,60,,,right,1.0,2.6852,0.0,61.0,61.0,42.0,1.0,5000.0,0.0,56000.0,29.0
,,,,,,,,,,,,,,,,,,,,,,,2,440,2022-09-07_07h37.22.348,tareaTDv3,2020.2.5,Win32,60,,,right,1.0,3.9696,0.0,62.0,62.0,79.0,1.0,25000.0,0.0,150000.0,61.0
,,,,,,,,,,,,,,,,,,,,,,,2,440,2022-09-07_07h37.22.348,tareaTDv3,2020.2.5,Win32,60,,,left,1.0,2.4982,0.0,63.0,63.0,62.0,1.0,25000.0,0.0,75000.0,5.0
,,,,,,,,,,,,,,,,,,,,,,,2,440,2022-09-07_07h37.22.348,tareaTDv3,2020.2.5,Win32,60,,,left,1.0,3.6001,0.0,64.0,64.0,47.0,1.0,5000.0,0.0,56000.0,60.0
,,,,,,,,,,,,,,,,,,,,,,,2,440,2022-09-07_07h37.22.348,tareaTDv3,2020.2.5,Win32,60,,,left,1.0,1.6893,0.0,65.0,65.0,2.0,1.0,10000.0,0.0,61000.0,4.0
,,,,,,,,,,,,,,,,,,,,,,,2,440,2022-09-07_07h37.22.348,tareaTDv3,2020.2.5,Win32,60,,,left,1.0,1.2828,0.0,66.0,66.0,49.0,1.0,5000.0,0.0,149000.0,59.0
,,,,,,,,,,,,,,,,,,,,,,,2,440,2022-09-07_07h37.22.348,tareaTDv3,2020.2.5,Win32,60,,,right,0.0,3.3226,0.0,67.0,67.0,22.0,1.0,10000.0,0.0,61000.0,89.0
,,,,,,,,,,,,,,,,,,,,,,,2,440,2022-09-07_07h37.22.348,tareaTDv3,2020.2.5,Win32,60,,,left,1.0,2.2616,0.0,68.0,68.0,73.0,1.0,25000.0,0.0,125000.0,31.0
,,,,,,,,,,,,,,,,,,,,,,,2,440,2022-09-07_07h37.22.348,tareaTDv3,2020.2.5,Win32,60,,,right,1.0,2.222,0.0,69.0,69.0,14.0,1.0,10000.0,0.0,150000.0,30.0
,,,,,,,,,,,,,,,,,,,,,,,2,440,2022-09-07_07h37.22.348,tareaTDv3,2020.2.5,Win32,60,,,right,1.0,4.9126,0.0,70.0,70.0,32.0,1.0,5000.0,0.0,54000.0,5.0
,,,,,,,,,,,,,,,,,,,,,,,2,440,2022-09-07_07h37.22.348,tareaTDv3,2020.2.5,Win32,60,,,right,0.0,4.8558,0.0,71.0,71.0,52.0,1.0,5000.0,0.0,56000.0,89.0
,,,,,,,,,,,,,,,,,,,,,,,2,440,2022-09-07_07h37.22.348,tareaTDv3,2020.2.5,Win32,60,,,right,0.0,2.0206,0.0,72.0,72.0,86.0,1.0,25000.0,0.0,55000.0,151.0
,,,,,,,,,,,,,,,,,,,,,,,2,440,2022-09-07_07h37.22.348,tareaTDv3,2020.2.5,Win32,60,,,right,1.0,4.8732,0.0,73.0,73.0,19.0,1.0,10000.0,0.0,149000.0,61.0
,,,,,,,,,,,,,,,,,,,,,,,2,440,2022-09-07_07h37.22.348,tareaTDv3,2020.2.5,Win32,60,,,right,0.0,3.2776,0.0,74.0,74.0,81.0,1.0,25000.0,0.0,55000.0,90.0
,,,,,,,,,,,,,,,,,,,,,,,2,440,2022-09-07_07h37.22.348,tareaTDv3,2020.2.5,Win32,60,,,left,1.0,1.9674,0.0,75.0,75.0,53.0,1.0,5000.0,0.0,104000.0,90.0
,,,,,,,,,,,,,,,,,,,,,,,2,440,2022-09-07_07h37.22.348,tareaTDv3,2020.2.5,Win32,60,,,right,1.0,2.2345,0.0,76.0,76.0,11.0,1.0,10000.0,0.0,39000.0,29.0
,,,,,,,,,,,,,,,,,,,,,,,2,440,2022-09-07_07h37.22.348,tareaTDv3,2020.2.5,Win32,60,,,left,1.0,3.474,0.0,77.0,77.0,89.0,1.0,25000.0,0.0,150000.0,150.0
,,,,,,,,,,,,,,,,,,,,,,,2,440,2022-09-07_07h37.22.348,tareaTDv3,2020.2.5,Win32,60,,,left,1.0,2.3547,0.0,78.0,78.0,6.0,1.0,10000.0,0.0,40000.0,10.0
,,,,,,,,,,,,,,,,,,,,,,,2,440,2022-09-07_07h37.22.348,tareaTDv3,2020.2.5,Win32,60,,,right,1.0,1.3338,0.0,79.0,79.0,69.0,1.0,25000.0,0.0,150000.0,9.0
,,,,,,,,,,,,,,,,,,,,,,,2,440,2022-09-07_07h37.22.348,tareaTDv3,2020.2.5,Win32,60,,,right,0.0,8.2431,0.0,80.0,80.0,23.0,1.0,10000.0,0.0,110000.0,90.0
,,,,,,,,,,,,,,,,,,,,,,,2,440,2022-09-07_07h37.22.348,tareaTDv3,2020.2.5,Win32,60,,,right,0.0,2.5919,0.0,81.0,81.0,16.0,1.0,10000.0,0.0,39000.0,59.0
,,,,,,,,,,,,,,,,,,,,,,,2,440,2022-09-07_07h37.22.348,tareaTDv3,2020.2.5,Win32,60,,,left,1.0,1.2162,0.0,82.0,82.0,30.0,1.0,5000.0,0.0,16000.0,4.0
,,,,,,,,,,,,,,,,,,,,,,,2,440,2022-09-07_07h37.22.348,tareaTDv3,2020.2.5,Win32,60,,,left,0.0,1.4257,0.0,83.0,83.0,78.0,1.0,25000.0,0.0,125000.0,59.0
,,,,,,,,,,,,,,,,,,,,,,,2,440,2022-09-07_07h37.22.348,tareaTDv3,2020.2.5,Win32,60,,,left,1.0,2.4481,0.0,84.0,84.0,12.0,1.0,10000.0,0.0,60000.0,29.0
,,,,,,,,,,,,,,,,,,,,,,,2,440,2022-09-07_07h37.22.348,tareaTDv3,2020.2.5,Win32,60,,,right,1.0,1.6064,0.0,85.0,85.0,51.0,1.0,5000.0,0.0,35000.0,89.0
,,,,,,,,,,,,,,,,,,,,,,,2,440,2022-09-07_07h37.22.348,tareaTDv3,2020.2.5,Win32,60,,,right,0.0,3.4682,0.0,86.0,86.0,10.0,1.0,10000.0,0.0,21000.0,31.0
,,,,,,,,,,,,,,,,,,,,,,,2,440,2022-09-07_07h37.22.348,tareaTDv3,2020.2.5,Win32,60,,,left,1.0,2.4214,0.0,87.0,87.0,21.0,1.0,10000.0,0.0,40000.0,91.0
,,,,,,,,,,,,,,,,,,,,,,,2,440,2022-09-07_07h37.22.348,tareaTDv3,2020.2.5,Win32,60,,,left,0.0,1.1439,0.0,88.0,88.0,85.0,1.0,25000.0,0.0,35000.0,150.0
,,,,,,,,,,,,,,,,,,,,,,,2,440,2022-09-07_07h37.22.348,tareaTDv3,2020.2.5,Win32,60,,,left,0.0,0.7167,0.0,89.0,89.0,76.0,1.0,25000.0,0.0,55000.0,60.0
