key1.keys,key1.rt,key2.keys,key2.rt,key2_2.keys,key2_2.rt,key2_3.keys,key2_3.rt,key3.keys,key3.rt,key4.keys,key4.rt,respP.keys,respP.corr,respP.rt,Practice.thisRepN,Practice.thisTrialN,Practice.thisN,Practice.thisIndex,Practice.ran,ssAmount,llAmount,llDelay,session,participant,date,expName,psychopyVersion,OS,frameRate,key5.keys,key5.rt,respT.keys,respT.corr,respT.rt,trials.thisRepN,trials.thisTrialN,trials.thisN,trials.thisIndex,trials.ran,ss_am,ss_del,ll_am,ll_del,key_resp_4.keys,key_resp_4.rt
space,4.4125,space,29.9713,space,12.0919,space,5.4375,left,5.362,space,2.3401,left,0.0,8.2882,0.0,0.0,0.0,0.0,1.0,10000.0,109000.0,9.0,2,441,2022-09-07_07h12.27.204,tareaTDv3,2020.2.5,Win32,60,,,,,,,,,,,,,,,,
,,,,,,,,,,,,left,1.0,6.8026,0.0,1.0,1.0,1.0,1.0,25000.0,35000.0,150.0,2,441,2022-09-07_07h12.27.204,tareaTDv3,2020.2.5,Win32,60,,,,,,,,,,,,,,,,
,,,,,,,,,,,,right,1.0,4.3492,0.0,2.0,2.0,2.0,1.0,10000.0,19000.0,89.0,2,441,2022-09-07_07h12.27.204,tareaTDv3,2020.2.5,Win32,60,,,,,,,,,,,,,,,,
,,,,,,,,,,,,,,,,,,,,,,,2,441,2022-09-07_07h12.27.204,tareaTDv3,2020.2.5,Win32,60,g,13.948,right,1.0,4.3425,0.0,0.0,0.0,42.0,1.0,5000.0,0.0,56000.0,29.0,,
,,,,,,,,,,,,,,,,,,,,,,,2,441,2022-09-07_07h12.27.204,tareaTDv3,2020.2.5,Win32,60,,,left,1.0,3.775,0.0,1.0,1.0,88.0,1.0,25000.0,0.0,125000.0,149.0,,
,,,,,,,,,,,,,,,,,,,,,,,2,441,2022-09-07_07h12.27.204,tareaTDv3,2020.2.5,Win32,60,,,left,1.0,3.1939,0.0,2.0,2.0,33.0,1.0,5000.0,0.0,104000.0,5.0,,
,,,,,,,,,,,,,,,,,,,,,,,2,441,2022-09-07_07h12.27.204,tareaTDv3,2020.2.5,Win32,60,,,left,1.0,2.1406,0.0,3.0,3.0,53.0,1.0,5000.0,0.0,104000.0,90.0,,
,,,,,,,,,,,,,,,,,,,,,,,2,441,2022-09-07_07h12.27.204,tareaTDv3,2020.2.5,Win32,60,,,right,1.0,4.1583,0.0,4.0,4.0,6.0,1.0,10000.0,0.0,40000.0,10.0,,
,,,,,,,,,,,,,,,,,,,,,,,2,441,2022-09-07_07h12.27.204,tareaTDv3,2020.2.5,Win32,60,,,left,1.0,1.8055,0.0,5.0,5.0,39.0,1.0,5000.0,0.0,149000.0,10.0,,
,,,,,,,,,,,,,,,,,,,,,,,2,441,2022-09-07_07h12.27.204,tareaTDv3,2020.2.5,Win32,60,,,right,1.0,2.4128,0.0,6.0,6.0,10.0,1.0,10000.0,0.0,21000.0,31.0,,
,,,,,,,,,,,,,,,,,,,,,,,2,441,2022-09-07_07h12.27.204,tareaTDv3,2020.2.5,Win32,60,,,left,1.0,0.9827,0.0,7.0,7.0,51.0,1.0,5000.0,0.0,35000.0,89.0,,
,,,,,,,,,,,,,,,,,,,,,,,2,441,2022-09-07_07h12.27.204,tareaTDv3,2020.2.5,Win32,60,,,left,1.0,1.1153,0.0,8.0,8.0,32.0,1.0,5000.0,0.0,54000.0,5.0,,
,,,,,,,,,,,,,,,,,,,,,,,2,441,2022-09-07_07h12.27.204,tareaTDv3,2020.2.5,Win32,60,,,right,1.0,1.2737,0.0,9.0,9.0,9.0,1.0,10000.0,0.0,151000.0,11.0,,
,,,,,,,,,,,,,,,,,,,,,,,2,441,2022-09-07_07h12.27.204,tareaTDv3,2020.2.5,Win32,60,,,right,1.0,2.3652,0.0,10.0,10.0,17.0,1.0,10000.0,0.0,60000.0,60.0,,
,,,,,,,,,,,,,,,,,,,,,,,2,441,2022-09-07_07h12.27.204,tareaTDv3,2020.2.5,Win32,60,,,right,0.0,3.4313,0.0,11.0,11.0,75.0,1.0,25000.0,0.0,35000.0,60.0,,
,,,,,,,,,,,,,,,,,,,,,,,2,441,2022-09-07_07h12.27.204,tareaTDv3,2020.2.5,Win32,60,,,left,1.0,3.8302,0.0,12.0,12.0,13.0,1.0,10000.0,0.0,111000.0,30.0,,
,,,,,,,,,,,,,,,,,,,,,,,2,441,2022-09-07_07h12.27.204,tareaTDv3,2020.2.5,Win32,60,,,left,1.0,2.2213,0.0,13.0,13.0,66.0,1.0,25000.0,0.0,55000.0,11.0,,
,,,,,,,,,,,,,,,,,,,,,,,2,441,2022-09-07_07h12.27.204,tareaTDv3,2020.2.5,Win32,60,,,right,1.0,1.2657,0.0,14.0,14.0,84.0,1.0,25000.0,0.0,150000.0,89.0,,
,,,,,,,,,,,,,,,,,,,,,,,2,441,2022-09-07_07h12.27.204,tareaTDv3,2020.2.5,Win32,60,,,left,1.0,1.2228,0.0,15.0,15.0,60.0,1.0,25000.0,0.0,35000.0,5.0,,
,,,,,,,,,,,,,,,,,,,,,,,2,441,2022-09-07_07h12.27.204,tareaTDv3,2020.2.5,Win32,60,,,right,1.0,0.834,0.0,16.0,16.0,1.0,1.0,10000.0,0.0,39000.0,6.0,,
,,,,,,,,,,,,,,,,,,,,,,,2,441,2022-09-07_07h12.27.204,tareaTDv3,2020.2.5,Win32,60,,,right,1.0,0.5139,0.0,17.0,17.0,30.0,1.0,5000.0,0.0,16000.0,4.0,,
,,,,,,,,,,,,,,,,,,,,,,,2,441,2022-09-07_07h12.27.204,tareaTDv3,2020.2.5,Win32,60,,,right,1.0,0.7046,0.0,18.0,18.0,54.0,1.0,5000.0,0.0,150000.0,90.0,,
,,,,,,,,,,,,,,,,,,,,,,,2,441,2022-09-07_07h12.27.204,tareaTDv3,2020.2.5,Win32,60,,,left,1.0,2.8882,0.0,19.0,19.0,89.0,1.0,25000.0,0.0,150000.0,150.0,,
,,,,,,,,,,,,,,,,,,,,,,,2,441,2022-09-07_07h12.27.204,tareaTDv3,2020.2.5,Win32,60,,,left,1.0,2.6186,0.0,20.0,20.0,86.0,1.0,25000.0,0.0,55000.0,151.0,,
,,,,,,,,,,,,,,,,,,,,,,,2,441,2022-09-07_07h12.27.204,tareaTDv3,2020.2.5,Win32,60,,,left,1.0,0.5724,0.0,21.0,21.0,44.0,1.0,5000.0,0.0,150000.0,30.0,,
,,,,,,,,,,,,,,,,,,,,,,,2,441,2022-09-07_07h12.27.204,tareaTDv3,2020.2.5,Win32,60,,,right,1.0,1.2557,0.0,22.0,22.0,38.0,1.0,5000.0,0.0,104000.0,10.0,,
,,,,,,,,,,,,,,,,,,,,,,,2,441,2022-09-07_07h12.27.204,tareaTDv3,2020.2.5,Win32,60,,,left,1.0,1.6017,0.0,23.0,23.0,79.0,1.0,25000.0,0.0,150000.0,61.0,,
,,,,,,,,,,,,,,,,,,,,,,,2,441,2022-09-07_07h12.27.204,tareaTDv3,2020.2.5,Win32,60,,,left,1.0,1.1706,0.0,24.0,24.0,16.0,1.0,10000.0,0.0,39000.0,59.0,,
,,,,,,,,,,,,,,,,,,,,,,,2,441,2022-09-07_07h12.27.204,tareaTDv3,2020.2.5,Win32,60,,,right,1.0,1.0694,0.0,25.0,25.0,2.0,1.0,10000.0,0.0,61000.0,4.0,,
,,,,,,,,,,,,,,,,,,,,,,,2,441,2022-09-07_07h12.27.204,tareaTDv3,2020.2.5,Win32,60,,,left,1.0,1.3726,0.0,26.0,26.0,34.0,1.0,5000.0,0.0,151000.0,4.0,,
,,,,,,,,,,,,,,,,,,,,,,,2,441,2022-09-07_07h12.27.204,tareaTDv3,2020.2.5,Win32,60,,,right,1.0,0.8542,0.0,27.0,27.0,40.0,1.0,5000.0,0.0,14000.0,31.0,,
,,,,,,,,,,,,,,,,,,,,,,,2,441,2022-09-07_07h12.27.204,tareaTDv3,2020.2.5,Win32,60,,,right,1.0,2.3903,0.0,28.0,28.0,65.0,1.0,25000.0,0.0,35000.0,11.0,,
,,,,,,,,,,,,,,,,,,,,,,,2,441,2022-09-07_07h12.27.204,tareaTDv3,2020.2.5,Win32,60,,,right,1.0,3.0422,0.0,29.0,29.0,4.0,1.0,10000.0,0.0,150000.0,5.0,,
,,,,,,,,,,,,,,,,,,,,,,,2,441,2022-09-07_07h12.27.204,tareaTDv3,2020.2.5,Win32,60,,,right,1.0,2.7877,0.0,30.0,30.0,77.0,1.0,25000.0,0.0,75000.0,59.0,,
,,,,,,,,,,,,,,,,,,,,,,,2,441,2022-09-07_07h12.27.204,tareaTDv3,2020.2.5,Win32,60,,,right,1.0,0.5139,0.0,31.0,31.0,72.0,1.0,25000.0,0.0,75000.0,31.0,,
,,,,,,,,,,,,,,,,,,,,,,,2,441,2022-09-07_07h12.27.204,tareaTDv3,2020.2.5,Win32,60,,,right,1.0,1.335,0.0,32.0,32.0,63.0,1.0,25000.0,0.0,125000.0,4.0,,
,,,,,,,,,,,,,,,,,,,,,,,2,441,2022-09-07_07h12.27.204,tareaTDv3,2020.2.5,Win32,60,,,left,1.0,1.0497,0.0,33.0,33.0,80.0,1.0,25000.0,0.0,35000.0,90.0,,
,,,,,,,,,,,,,,,,,,,,,,,2,441,2022-09-07_07h12.27.204,tareaTDv3,2020.2.5,Win32,60,,,right,1.0,1.3033,0.0,34.0,34.0,58.0,1.0,5000.0,0.0,106000.0,152.0,,
,,,,,,,,,,,,,,,,,,,,,,,2,441,2022-09-07_07h12.27.204,tareaTDv3,2020.2.5,Win32,60,,,left,1.0,0.5866,0.0,35.0,35.0,24.0,1.0,10000.0,0.0,149000.0,89.0,,
,,,,,,,,,,,,,,,,,,,,,,,2,441,2022-09-07_07h12.27.204,tareaTDv3,2020.2.5,Win32,60,,,left,1.0,1.8481,0.0,36.0,36.0,62.0,1.0,25000.0,0.0,75000.0,5.0,,
,,,,,,,,,,,,,,,,,,,,,,,2,441,2022-09-07_07h12.27.204,tareaTDv3,2020.2.5,Win32,60,,,right,1.0,0.3478,0.0,37.0,37.0,29.0,1.0,10000.0,0.0,151000.0,151.0,,
,,,,,,,,,,,,,,,,,,,,,,,2,441,2022-09-07_07h12.27.204,tareaTDv3,2020.2.5,Win32,60,,,left,1.0,0.1045,0.0,38.0,38.0,48.0,1.0,5000.0,0.0,105000.0,60.0,,
,,,,,,,,,,,,,,,,,,,,,,,2,441,2022-09-07_07h12.27.204,tareaTDv3,2020.2.5,Win32,60,,,left,1.0,0.5475,0.0,39.0,39.0,41.0,1.0,5000.0,0.0,35000.0,31.0,,
,,,,,,,,,,,,,,,,,,,,,,,2,441,2022-09-07_07h12.27.204,tareaTDv3,2020.2.5,Win32,60,,,right,1.0,0.5678,0.0,40.0,40.0,85.0,1.0,25000.0,0.0,35000.0,150.0,,
,,,,,,,,,,,,,,,,,,,,,,,2,441,2022-09-07_07h12.27.204,tareaTDv3,2020.2.5,Win32,60,,,right,1.0,3.7396,0.0,41.0,41.0,46.0,1.0,5000.0,0.0,36000.0,61.0,,
,,,,,,,,,,,,,,,,,,,,,,,2,441,2022-09-07_07h12.27.204,tareaTDv3,2020.2.5,Win32,60,,,left,1.0,1.753,0.0,42.0,42.0,71.0,1.0,25000.0,0.0,55000.0,30.0,,
,,,,,,,,,,,,,,,,,,,,,,,2,441,2022-09-07_07h12.27.204,tareaTDv3,2020.2.5,Win32,60,,,left,1.0,0.7875,0.0,43.0,43.0,82.0,1.0,25000.0,0.0,75000.0,90.0,,
,,,,,,,,,,,,,,,,,,,,,,,2,441,2022-09-07_07h12.27.204,tareaTDv3,2020.2.5,Win32,60,,,left,1.0,0.6133,0.0,44.0,44.0,22.0,1.0,10000.0,0.0,61000.0,89.0,,
,,,,,,,,,,,,,,,,,,,,,,,2,441,2022-09-07_07h12.27.204,tareaTDv3,2020.2.5,Win32,60,,,right,1.0,0.486,0.0,45.0,45.0,52.0,1.0,5000.0,0.0,56000.0,89.0,,
,,,,,,,,,,,,,,,,,,,,,,,2,441,2022-09-07_07h12.27.204,tareaTDv3,2020.2.5,Win32,60,,,right,1.0,0.3765,0.0,46.0,46.0,64.0,1.0,25000.0,0.0,150000.0,4.0,,
,,,,,,,,,,,,,,,,,,,,,,,2,441,2022-09-07_07h12.27.204,tareaTDv3,2020.2.5,Win32,60,,,right,1.0,1.0829,0.0,47.0,47.0,23.0,1.0,10000.0,0.0,110000.0,90.0,,
,,,,,,,,,,,,,,,,,,,,,,,2,441,2022-09-07_07h12.27.204,tareaTDv3,2020.2.5,Win32,60,,,left,1.0,0.5309,0.0,48.0,48.0,18.0,1.0,10000.0,0.0,110000.0,60.0,,
,,,,,,,,,,,,,,,,,,,,,,,2,441,2022-09-07_07h12.27.204,tareaTDv3,2020.2.5,Win32,60,,,right,1.0,3.8075,0.0,49.0,49.0,73.0,1.0,25000.0,0.0,125000.0,31.0,,
,,,,,,,,,,,,,,,,,,,,,,,2,441,2022-09-07_07h12.27.204,tareaTDv3,2020.2.5,Win32,60,,,right,1.0,1.8338,0.0,50.0,50.0,59.0,1.0,5000.0,0.0,151000.0,150.0,,
,,,,,,,,,,,,,,,,,,,,,,,2,441,2022-09-07_07h12.27.204,tareaTDv3,2020.2.5,Win32,60,,,right,1.0,1.1163,0.0,51.0,51.0,12.0,1.0,10000.0,0.0,60000.0,29.0,,
,,,,,,,,,,,,,,,,,,,,,,,2,441,2022-09-07_07h12.27.204,tareaTDv3,2020.2.5,Win32,60,,,right,1.0,1.2506,0.0,52.0,52.0,0.0,1.0,10000.0,0.0,20000.0,5.0,,
,,,,,,,,,,,,,,,,,,,,,,,2,441,2022-09-07_07h12.27.204,tareaTDv3,2020.2.5,Win32,60,,,left,1.0,1.8963,0.0,53.0,53.0,49.0,1.0,5000.0,0.0,149000.0,59.0,,
,,,,,,,,,,,,,,,,,,,,,,,2,441,2022-09-07_07h12.27.204,tareaTDv3,2020.2.5,Win32,60,,,left,1.0,1.6033,0.0,54.0,54.0,19.0,1.0,10000.0,0.0,149000.0,61.0,,
,,,,,,,,,,,,,,,,,,,,,,,2,441,2022-09-07_07h12.27.204,tareaTDv3,2020.2.5,Win32,60,,,left,1.0,1.9228,0.0,55.0,55.0,57.0,1.0,5000.0,0.0,55000.0,151.0,,
,,,,,,,,,,,,,,,,,,,,,,,2,441,2022-09-07_07h12.27.204,tareaTDv3,2020.2.5,Win32,60,,,right,1.0,3.7199,0.0,56.0,56.0,61.0,1.0,25000.0,0.0,55000.0,6.0,,
,,,,,,,,,,,,,,,,,,,,,,,2,441,2022-09-07_07h12.27.204,tareaTDv3,2020.2.5,Win32,60,,,left,1.0,0.3882,0.0,57.0,57.0,3.0,1.0,10000.0,0.0,109000.0,5.0,,
,,,,,,,,,,,,,,,,,,,,,,,2,441,2022-09-07_07h12.27.204,tareaTDv3,2020.2.5,Win32,60,,,right,1.0,0.8545,0.0,58.0,58.0,70.0,1.0,25000.0,0.0,35000.0,30.0,,
,,,,,,,,,,,,,,,,,,,,,,,2,441,2022-09-07_07h12.27.204,tareaTDv3,2020.2.5,Win32,60,,,left,1.0,0.557,0.0,59.0,59.0,68.0,1.0,25000.0,0.0,125000.0,9.0,,
,,,,,,,,,,,,,,,,,,,,,,,2,441,2022-09-07_07h12.27.204,tareaTDv3,2020.2.5,Win32,60,,,right,1.0,1.6666,0.0,60.0,60.0,21.0,1.0,10000.0,0.0,40000.0,91.0,,
,,,,,,,,,,,,,,,,,,,,,,,2,441,2022-09-07_07h12.27.204,tareaTDv3,2020.2.5,Win32,60,,,right,0.0,2.6463,0.0,61.0,61.0,14.0,1.0,10000.0,0.0,150000.0,30.0,,
,,,,,,,,,,,,,,,,,,,,,,,2,441,2022-09-07_07h12.27.204,tareaTDv3,2020.2.5,Win32,60,,,left,0.0,4.4931,0.0,62.0,62.0,55.0,1.0,5000.0,0.0,14000.0,149.0,,
,,,,,,,,,,,,,,,,,,,,,,,2,441,2022-09-07_07h12.27.204,tareaTDv3,2020.2.5,Win32,60,,,left,1.0,2.5374,0.0,63.0,63.0,35.0,1.0,5000.0,0.0,15000.0,11.0,,
,,,,,,,,,,,,,,,,,,,,,,,2,441,2022-09-07_07h12.27.204,tareaTDv3,2020.2.5,Win32,60,,,right,1.0,3.223,0.0,64.0,64.0,76.0,1.0,25000.0,0.0,55000.0,60.0,,
,,,,,,,,,,,,,,,,,,,,,,,2,441,2022-09-07_07h12.27.204,tareaTDv3,2020.2.5,Win32,60,,,right,0.0,5.6918,0.0,65.0,65.0,25.0,1.0,10000.0,0.0,10000.0,150.0,,
,,,,,,,,,,,,,,,,,,,,,,,2,441,2022-09-07_07h12.27.204,tareaTDv3,2020.2.5,Win32,60,,,left,1.0,3.7837,0.0,66.0,66.0,26.0,1.0,10000.0,0.0,39000.0,150.0,,
,,,,,,,,,,,,,,,,,,,,,,,2,441,2022-09-07_07h12.27.204,tareaTDv3,2020.2.5,Win32,60,,,right,1.0,2.7326,0.0,67.0,67.0,74.0,1.0,25000.0,0.0,150000.0,29.0,,
,,,,,,,,,,,,,,,,,,,,,,,2,441,2022-09-07_07h12.27.204,tareaTDv3,2020.2.5,Win32,60,,,left,1.0,3.7599,0.0,68.0,68.0,7.0,1.0,10000.0,0.0,59000.0,9.0,,
,,,,,,,,,,,,,,,,,,,,,,,2,441,2022-09-07_07h12.27.204,tareaTDv3,2020.2.5,Win32,60,,,right,0.0,1.7701,0.0,69.0,69.0,20.0,1.0,10000.0,0.0,20000.0,90.0,,
,,,,,,,,,,,,,,,,,,,,,,,2,441,2022-09-07_07h12.27.204,tareaTDv3,2020.2.5,Win32,60,,,left,1.0,1.7739,0.0,70.0,70.0,69.0,1.0,25000.0,0.0,150000.0,9.0,,
,,,,,,,,,,,,,,,,,,,,,,,2,441,2022-09-07_07h12.27.204,tareaTDv3,2020.2.5,Win32,60,,,right,1.0,1.257,0.0,71.0,71.0,67.0,1.0,25000.0,0.0,75000.0,10.0,,
,,,,,,,,,,,,,,,,,,,,,,,2,441,2022-09-07_07h12.27.204,tareaTDv3,2020.2.5,Win32,60,,,right,1.0,0.9161,0.0,72.0,72.0,28.0,1.0,10000.0,0.0,109000.0,149.0,,
,,,,,,,,,,,,,,,,,,,,,,,2,441,2022-09-07_07h12.27.204,tareaTDv3,2020.2.5,Win32,60,,,right,1.0,0.7929,0.0,73.0,73.0,36.0,1.0,5000.0,0.0,36000.0,9.0,,
,,,,,,,,,,,,,,,,,,,,,,,2,441,2022-09-07_07h12.27.204,tareaTDv3,2020.2.5,Win32,60,,,left,1.0,2.4072,0.0,74.0,74.0,37.0,1.0,5000.0,0.0,56000.0,9.0,,
,,,,,,,,,,,,,,,,,,,,,,,2,441,2022-09-07_07h12.27.204,tareaTDv3,2020.2.5,Win32,60,,,left,1.0,5.1349,0.0,75.0,75.0,87.0,1.0,25000.0,0.0,75000.0,151.0,,
,,,,,,,,,,,,,,,,,,,,,,,2,441,2022-09-07_07h12.27.204,tareaTDv3,2020.2.5,Win32,60,,,right,1.0,0.8672,0.0,76.0,76.0,31.0,1.0,5000.0,0.0,35000.0,6.0,,
,,,,,,,,,,,,,,,,,,,,,,,2,441,2022-09-07_07h12.27.204,tareaTDv3,2020.2.5,Win32,60,,,left,1.0,1.3078,0.0,77.0,77.0,27.0,1.0,10000.0,0.0,61000.0,150.0,,
,,,,,,,,,,,,,,,,,,,,,,,2,441,2022-09-07_07h12.27.204,tareaTDv3,2020.2.5,Win32,60,,,left,1.0,0.3463,0.0,78.0,78.0,50.0,1.0,5000.0,0.0,15000.0,91.0,,
,,,,,,,,,,,,,,,,,,,,,,,2,441,2022-09-07_07h12.27.204,tareaTDv3,2020.2.5,Win32,60,,,right,1.0,1.3668,0.0,79.0,79.0,81.0,1.0,25000.0,0.0,55000.0,90.0,,
,,,,,,,,,,,,,,,,,,,,,,,2,441,2022-09-07_07h12.27.204,tareaTDv3,2020.2.5,Win32,60,,,right,1.0,0.7876,0.0,80.0,80.0,45.0,1.0,5000.0,0.0,15000.0,61.0,,
,,,,,,,,,,,,,,,,,,,,,,,2,441,2022-09-07_07h12.27.204,tareaTDv3,2020.2.5,Win32,60,,,left,1.0,1.3288,0.0,81.0,81.0,47.0,1.0,5000.0,0.0,56000.0,60.0,,
,,,,,,,,,,,,,,,,,,,,,,,2,441,2022-09-07_07h12.27.204,tareaTDv3,2020.2.5,Win32,60,,,right,0.0,2.2125,0.0,82.0,82.0,15.0,1.0,10000.0,0.0,20000.0,59.0,,
,,,,,,,,,,,,,,,,,,,,,,,2,441,2022-09-07_07h12.27.204,tareaTDv3,2020.2.5,Win32,60,,,left,1.0,7.3312,0.0,83.0,83.0,8.0,1.0,10000.0,0.0,111000.0,10.0,,
,,,,,,,,,,,,,,,,,,,,,,,2,441,2022-09-07_07h12.27.204,tareaTDv3,2020.2.5,Win32,60,,,right,1.0,1.4533,0.0,84.0,84.0,43.0,1.0,5000.0,0.0,106000.0,29.0,,
,,,,,,,,,,,,,,,,,,,,,,,2,441,2022-09-07_07h12.27.204,tareaTDv3,2020.2.5,Win32,60,,,right,1.0,1.9349,0.0,85.0,85.0,56.0,1.0,5000.0,0.0,35000.0,150.0,,
,,,,,,,,,,,,,,,,,,,,,,,2,441,2022-09-07_07h12.27.204,tareaTDv3,2020.2.5,Win32,60,,,left,1.0,2.7178,0.0,86.0,86.0,5.0,1.0,10000.0,0.0,19000.0,11.0,,
,,,,,,,,,,,,,,,,,,,,,,,2,441,2022-09-07_07h12.27.204,tareaTDv3,2020.2.5,Win32,60,,,right,1.0,2.8894,0.0,87.0,87.0,83.0,1.0,25000.0,0.0,125000.0,89.0,,
,,,,,,,,,,,,,,,,,,,,,,,2,441,2022-09-07_07h12.27.204,tareaTDv3,2020.2.5,Win32,60,,,right,1.0,0.6595,0.0,88.0,88.0,11.0,1.0,10000.0,0.0,39000.0,29.0,,
,,,,,,,,,,,,,,,,,,,,,,,2,441,2022-09-07_07h12.27.204,tareaTDv3,2020.2.5,Win32,60,,,right,1.0,0.8667,0.0,89.0,89.0,78.0,1.0,25000.0,0.0,125000.0,59.0,,
,,,,,,,,,,,,,,,,,,,,,,,2,441,2022-09-07_07h12.27.204,tareaTDv3,2020.2.5,Win32,60,,,,,,,,,,,,,,,right,1.7685
