key1.keys,key1.rt,key2.keys,key2.rt,key2_2.keys,key2_2.rt,key2_3.keys,key2_3.rt,key3.keys,key3.rt,key4.keys,key4.rt,respP.keys,respP.corr,respP.rt,Practice.thisRepN,Practice.thisTrialN,Practice.thisN,Practice.thisIndex,Practice.ran,ssAmount,llAmount,llDelay,session,participant,date,expName,psychopyVersion,OS,frameRate,key5.keys,key5.rt,respT.keys,respT.corr,respT.rt,trials.thisRepN,trials.thisTrialN,trials.thisN,trials.thisIndex,trials.ran,ss_am,ss_del,ll_am,ll_del,key_resp_4.keys,key_resp_4.rt
space,8.0751,space,25.8387,space,20.4725,space,4.2234,left,4.1396,space,2.8565,left,0.0,5.5251,0.0,0.0,0.0,2.0,1.0,10000.0,19000.0,89.0,2,474,2022-03-05_08h54.05.949,tareaTDv3,2020.2.5,Win32,60,,,,,,,,,,,,,,,,
,,,,,,,,,,,,left,1.0,6.3565,0.0,1.0,1.0,0.0,1.0,10000.0,109000.0,9.0,2,474,2022-03-05_08h54.05.949,tareaTDv3,2020.2.5,Win32,60,,,,,,,,,,,,,,,,
,,,,,,,,,,,,left,0.0,8.9399,0.0,2.0,2.0,1.0,1.0,25000.0,35000.0,150.0,2,474,2022-03-05_08h54.05.949,tareaTDv3,2020.2.5,Win32,60,,,,,,,,,,,,,,,,
,,,,,,,,,,,,,,,,,,,,,,,2,474,2022-03-05_08h54.05.949,tareaTDv3,2020.2.5,Win32,60,g,12.8234,right,0.0,5.9397,0.0,0.0,0.0,72.0,1.0,25000.0,0.0,75000.0,31.0,,
,,,,,,,,,,,,,,,,,,,,,,,2,474,2022-03-05_08h54.05.949,tareaTDv3,2020.2.5,Win32,60,,,right,0.0,6.9901,0.0,1.0,1.0,89.0,1.0,25000.0,0.0,150000.0,150.0,,
,,,,,,,,,,,,,,,,,,,,,,,2,474,2022-03-05_08h54.05.949,tareaTDv3,2020.2.5,Win32,60,,,left,0.0,2.9572,0.0,2.0,2.0,56.0,1.0,5000.0,0.0,35000.0,150.0,,
,,,,,,,,,,,,,,,,,,,,,,,2,474,2022-03-05_08h54.05.949,tareaTDv3,2020.2.5,Win32,60,,,left,0.0,6.5736,0.0,3.0,3.0,73.0,1.0,25000.0,0.0,125000.0,31.0,,
,,,,,,,,,,,,,,,,,,,,,,,2,474,2022-03-05_08h54.05.949,tareaTDv3,2020.2.5,Win32,60,,,right,0.0,10.0903,0.0,4.0,4.0,77.0,1.0,25000.0,0.0,75000.0,59.0,,
,,,,,,,,,,,,,,,,,,,,,,,2,474,2022-03-05_08h54.05.949,tareaTDv3,2020.2.5,Win32,60,,,left,0.0,4.6561,0.0,5.0,5.0,26.0,1.0,10000.0,0.0,39000.0,150.0,,
,,,,,,,,,,,,,,,,,,,,,,,2,474,2022-03-05_08h54.05.949,tareaTDv3,2020.2.5,Win32,60,,,right,1.0,2.9394,0.0,6.0,6.0,44.0,1.0,5000.0,0.0,150000.0,30.0,,
,,,,,,,,,,,,,,,,,,,,,,,2,474,2022-03-05_08h54.05.949,tareaTDv3,2020.2.5,Win32,60,,,left,1.0,4.0393,0.0,7.0,7.0,18.0,1.0,10000.0,0.0,110000.0,60.0,,
,,,,,,,,,,,,,,,,,,,,,,,2,474,2022-03-05_08h54.05.949,tareaTDv3,2020.2.5,Win32,60,,,left,1.0,6.5234,0.0,8.0,8.0,71.0,1.0,25000.0,0.0,55000.0,30.0,,
,,,,,,,,,,,,,,,,,,,,,,,2,474,2022-03-05_08h54.05.949,tareaTDv3,2020.2.5,Win32,60,,,left,0.0,6.9094,0.0,9.0,9.0,48.0,1.0,5000.0,0.0,105000.0,60.0,,
,,,,,,,,,,,,,,,,,,,,,,,2,474,2022-03-05_08h54.05.949,tareaTDv3,2020.2.5,Win32,60,,,right,1.0,4.1734,0.0,10.0,10.0,2.0,1.0,10000.0,0.0,61000.0,4.0,,
,,,,,,,,,,,,,,,,,,,,,,,2,474,2022-03-05_08h54.05.949,tareaTDv3,2020.2.5,Win32,60,,,left,1.0,2.8226,0.0,11.0,11.0,74.0,1.0,25000.0,0.0,150000.0,29.0,,
,,,,,,,,,,,,,,,,,,,,,,,2,474,2022-03-05_08h54.05.949,tareaTDv3,2020.2.5,Win32,60,,,right,0.0,5.41,0.0,12.0,12.0,55.0,1.0,5000.0,0.0,14000.0,149.0,,
,,,,,,,,,,,,,,,,,,,,,,,2,474,2022-03-05_08h54.05.949,tareaTDv3,2020.2.5,Win32,60,,,left,1.0,5.6569,0.0,13.0,13.0,3.0,1.0,10000.0,0.0,109000.0,5.0,,
,,,,,,,,,,,,,,,,,,,,,,,2,474,2022-03-05_08h54.05.949,tareaTDv3,2020.2.5,Win32,60,,,left,1.0,1.6571,0.0,14.0,14.0,43.0,1.0,5000.0,0.0,106000.0,29.0,,
,,,,,,,,,,,,,,,,,,,,,,,2,474,2022-03-05_08h54.05.949,tareaTDv3,2020.2.5,Win32,60,,,left,1.0,1.9232,0.0,15.0,15.0,12.0,1.0,10000.0,0.0,60000.0,29.0,,
,,,,,,,,,,,,,,,,,,,,,,,2,474,2022-03-05_08h54.05.949,tareaTDv3,2020.2.5,Win32,60,,,right,0.0,3.1398,0.0,16.0,16.0,20.0,1.0,10000.0,0.0,20000.0,90.0,,
,,,,,,,,,,,,,,,,,,,,,,,2,474,2022-03-05_08h54.05.949,tareaTDv3,2020.2.5,Win32,60,,,left,0.0,3.9064,0.0,17.0,17.0,80.0,1.0,25000.0,0.0,35000.0,90.0,,
,,,,,,,,,,,,,,,,,,,,,,,2,474,2022-03-05_08h54.05.949,tareaTDv3,2020.2.5,Win32,60,,,right,1.0,2.2236,0.0,18.0,18.0,31.0,1.0,5000.0,0.0,35000.0,6.0,,
,,,,,,,,,,,,,,,,,,,,,,,2,474,2022-03-05_08h54.05.949,tareaTDv3,2020.2.5,Win32,60,,,left,0.0,2.4261,0.0,19.0,19.0,88.0,1.0,25000.0,0.0,125000.0,149.0,,
,,,,,,,,,,,,,,,,,,,,,,,2,474,2022-03-05_08h54.05.949,tareaTDv3,2020.2.5,Win32,60,,,left,1.0,3.2408,0.0,20.0,20.0,67.0,1.0,25000.0,0.0,75000.0,10.0,,
,,,,,,,,,,,,,,,,,,,,,,,2,474,2022-03-05_08h54.05.949,tareaTDv3,2020.2.5,Win32,60,,,right,1.0,6.7095,0.0,21.0,21.0,40.0,1.0,5000.0,0.0,14000.0,31.0,,
,,,,,,,,,,,,,,,,,,,,,,,2,474,2022-03-05_08h54.05.949,tareaTDv3,2020.2.5,Win32,60,,,left,1.0,2.4916,0.0,22.0,22.0,22.0,1.0,10000.0,0.0,61000.0,89.0,,
,,,,,,,,,,,,,,,,,,,,,,,2,474,2022-03-05_08h54.05.949,tareaTDv3,2020.2.5,Win32,60,,,right,1.0,1.6909,0.0,23.0,23.0,8.0,1.0,10000.0,0.0,111000.0,10.0,,
,,,,,,,,,,,,,,,,,,,,,,,2,474,2022-03-05_08h54.05.949,tareaTDv3,2020.2.5,Win32,60,,,left,1.0,5.5904,0.0,24.0,24.0,81.0,1.0,25000.0,0.0,55000.0,90.0,,
,,,,,,,,,,,,,,,,,,,,,,,2,474,2022-03-05_08h54.05.949,tareaTDv3,2020.2.5,Win32,60,,,left,1.0,2.7414,0.0,25.0,25.0,79.0,1.0,25000.0,0.0,150000.0,61.0,,
,,,,,,,,,,,,,,,,,,,,,,,2,474,2022-03-05_08h54.05.949,tareaTDv3,2020.2.5,Win32,60,,,left,1.0,9.3566,0.0,26.0,26.0,60.0,1.0,25000.0,0.0,35000.0,5.0,,
,,,,,,,,,,,,,,,,,,,,,,,2,474,2022-03-05_08h54.05.949,tareaTDv3,2020.2.5,Win32,60,,,left,0.0,2.4059,0.0,27.0,27.0,25.0,1.0,10000.0,0.0,10000.0,150.0,,
,,,,,,,,,,,,,,,,,,,,,,,2,474,2022-03-05_08h54.05.949,tareaTDv3,2020.2.5,Win32,60,,,right,0.0,9.1901,0.0,28.0,28.0,16.0,1.0,10000.0,0.0,39000.0,59.0,,
,,,,,,,,,,,,,,,,,,,,,,,2,474,2022-03-05_08h54.05.949,tareaTDv3,2020.2.5,Win32,60,,,left,1.0,1.0943,0.0,29.0,29.0,36.0,1.0,5000.0,0.0,36000.0,9.0,,
,,,,,,,,,,,,,,,,,,,,,,,2,474,2022-03-05_08h54.05.949,tareaTDv3,2020.2.5,Win32,60,,,right,0.0,1.6258,0.0,30.0,30.0,86.0,1.0,25000.0,0.0,55000.0,151.0,,
,,,,,,,,,,,,,,,,,,,,,,,2,474,2022-03-05_08h54.05.949,tareaTDv3,2020.2.5,Win32,60,,,left,1.0,1.6733,0.0,31.0,31.0,62.0,1.0,25000.0,0.0,75000.0,5.0,,
,,,,,,,,,,,,,,,,,,,,,,,2,474,2022-03-05_08h54.05.949,tareaTDv3,2020.2.5,Win32,60,,,left,1.0,4.5899,0.0,32.0,32.0,45.0,1.0,5000.0,0.0,15000.0,61.0,,
,,,,,,,,,,,,,,,,,,,,,,,2,474,2022-03-05_08h54.05.949,tareaTDv3,2020.2.5,Win32,60,,,left,1.0,6.8104,0.0,33.0,33.0,59.0,1.0,5000.0,0.0,151000.0,150.0,,
,,,,,,,,,,,,,,,,,,,,,,,2,474,2022-03-05_08h54.05.949,tareaTDv3,2020.2.5,Win32,60,,,left,1.0,4.8929,0.0,34.0,34.0,54.0,1.0,5000.0,0.0,150000.0,90.0,,
,,,,,,,,,,,,,,,,,,,,,,,2,474,2022-03-05_08h54.05.949,tareaTDv3,2020.2.5,Win32,60,,,left,1.0,1.3081,0.0,35.0,35.0,6.0,1.0,10000.0,0.0,40000.0,10.0,,
,,,,,,,,,,,,,,,,,,,,,,,2,474,2022-03-05_08h54.05.949,tareaTDv3,2020.2.5,Win32,60,,,left,1.0,2.1568,0.0,36.0,36.0,30.0,1.0,5000.0,0.0,16000.0,4.0,,
,,,,,,,,,,,,,,,,,,,,,,,2,474,2022-03-05_08h54.05.949,tareaTDv3,2020.2.5,Win32,60,,,right,1.0,5.0402,0.0,37.0,37.0,28.0,1.0,10000.0,0.0,109000.0,149.0,,
,,,,,,,,,,,,,,,,,,,,,,,2,474,2022-03-05_08h54.05.949,tareaTDv3,2020.2.5,Win32,60,,,left,1.0,2.8906,0.0,38.0,38.0,58.0,1.0,5000.0,0.0,106000.0,152.0,,
,,,,,,,,,,,,,,,,,,,,,,,2,474,2022-03-05_08h54.05.949,tareaTDv3,2020.2.5,Win32,60,,,left,1.0,3.157,0.0,39.0,39.0,39.0,1.0,5000.0,0.0,149000.0,10.0,,
,,,,,,,,,,,,,,,,,,,,,,,2,474,2022-03-05_08h54.05.949,tareaTDv3,2020.2.5,Win32,60,,,left,0.0,2.2562,0.0,40.0,40.0,76.0,1.0,25000.0,0.0,55000.0,60.0,,
,,,,,,,,,,,,,,,,,,,,,,,2,474,2022-03-05_08h54.05.949,tareaTDv3,2020.2.5,Win32,60,,,left,0.0,4.4235,0.0,41.0,41.0,15.0,1.0,10000.0,0.0,20000.0,59.0,,
,,,,,,,,,,,,,,,,,,,,,,,2,474,2022-03-05_08h54.05.949,tareaTDv3,2020.2.5,Win32,60,,,right,1.0,4.5073,0.0,42.0,42.0,35.0,1.0,5000.0,0.0,15000.0,11.0,,
,,,,,,,,,,,,,,,,,,,,,,,2,474,2022-03-05_08h54.05.949,tareaTDv3,2020.2.5,Win32,60,,,right,0.0,4.04,0.0,43.0,43.0,82.0,1.0,25000.0,0.0,75000.0,90.0,,
,,,,,,,,,,,,,,,,,,,,,,,2,474,2022-03-05_08h54.05.949,tareaTDv3,2020.2.5,Win32,60,,,right,1.0,4.8244,0.0,44.0,44.0,0.0,1.0,10000.0,0.0,20000.0,5.0,,
,,,,,,,,,,,,,,,,,,,,,,,2,474,2022-03-05_08h54.05.949,tareaTDv3,2020.2.5,Win32,60,,,left,1.0,2.81,0.0,45.0,45.0,24.0,1.0,10000.0,0.0,149000.0,89.0,,
,,,,,,,,,,,,,,,,,,,,,,,2,474,2022-03-05_08h54.05.949,tareaTDv3,2020.2.5,Win32,60,,,left,1.0,2.9084,0.0,46.0,46.0,78.0,1.0,25000.0,0.0,125000.0,59.0,,
,,,,,,,,,,,,,,,,,,,,,,,2,474,2022-03-05_08h54.05.949,tareaTDv3,2020.2.5,Win32,60,,,right,0.0,2.1225,0.0,47.0,47.0,53.0,1.0,5000.0,0.0,104000.0,90.0,,
,,,,,,,,,,,,,,,,,,,,,,,2,474,2022-03-05_08h54.05.949,tareaTDv3,2020.2.5,Win32,60,,,right,1.0,5.0725,0.0,48.0,48.0,1.0,1.0,10000.0,0.0,39000.0,6.0,,
,,,,,,,,,,,,,,,,,,,,,,,2,474,2022-03-05_08h54.05.949,tareaTDv3,2020.2.5,Win32,60,,,left,0.0,1.5399,0.0,49.0,49.0,51.0,1.0,5000.0,0.0,35000.0,89.0,,
,,,,,,,,,,,,,,,,,,,,,,,2,474,2022-03-05_08h54.05.949,tareaTDv3,2020.2.5,Win32,60,,,right,1.0,2.6406,0.0,50.0,50.0,63.0,1.0,25000.0,0.0,125000.0,4.0,,
,,,,,,,,,,,,,,,,,,,,,,,2,474,2022-03-05_08h54.05.949,tareaTDv3,2020.2.5,Win32,60,,,left,0.0,2.3891,0.0,51.0,51.0,46.0,1.0,5000.0,0.0,36000.0,61.0,,
,,,,,,,,,,,,,,,,,,,,,,,2,474,2022-03-05_08h54.05.949,tareaTDv3,2020.2.5,Win32,60,,,right,1.0,3.3397,0.0,52.0,52.0,14.0,1.0,10000.0,0.0,150000.0,30.0,,
,,,,,,,,,,,,,,,,,,,,,,,2,474,2022-03-05_08h54.05.949,tareaTDv3,2020.2.5,Win32,60,,,right,1.0,3.49,0.0,53.0,53.0,19.0,1.0,10000.0,0.0,149000.0,61.0,,
,,,,,,,,,,,,,,,,,,,,,,,2,474,2022-03-05_08h54.05.949,tareaTDv3,2020.2.5,Win32,60,,,left,1.0,9.4244,0.0,54.0,54.0,38.0,1.0,5000.0,0.0,104000.0,10.0,,
,,,,,,,,,,,,,,,,,,,,,,,2,474,2022-03-05_08h54.05.949,tareaTDv3,2020.2.5,Win32,60,,,left,1.0,9.3227,0.0,55.0,55.0,4.0,1.0,10000.0,0.0,150000.0,5.0,,
,,,,,,,,,,,,,,,,,,,,,,,2,474,2022-03-05_08h54.05.949,tareaTDv3,2020.2.5,Win32,60,,,right,1.0,2.0056,0.0,56.0,56.0,42.0,1.0,5000.0,0.0,56000.0,29.0,,
,,,,,,,,,,,,,,,,,,,,,,,2,474,2022-03-05_08h54.05.949,tareaTDv3,2020.2.5,Win32,60,,,left,0.0,1.7896,0.0,57.0,57.0,57.0,1.0,5000.0,0.0,55000.0,151.0,,
,,,,,,,,,,,,,,,,,,,,,,,2,474,2022-03-05_08h54.05.949,tareaTDv3,2020.2.5,Win32,60,,,left,1.0,3.6227,0.0,58.0,58.0,32.0,1.0,5000.0,0.0,54000.0,5.0,,
,,,,,,,,,,,,,,,,,,,,,,,2,474,2022-03-05_08h54.05.949,tareaTDv3,2020.2.5,Win32,60,,,right,0.0,1.6394,0.0,59.0,59.0,75.0,1.0,25000.0,0.0,35000.0,60.0,,
,,,,,,,,,,,,,,,,,,,,,,,2,474,2022-03-05_08h54.05.949,tareaTDv3,2020.2.5,Win32,60,,,left,1.0,2.1733,0.0,60.0,60.0,9.0,1.0,10000.0,0.0,151000.0,11.0,,
,,,,,,,,,,,,,,,,,,,,,,,2,474,2022-03-05_08h54.05.949,tareaTDv3,2020.2.5,Win32,60,,,left,0.0,2.1569,0.0,61.0,61.0,49.0,1.0,5000.0,0.0,149000.0,59.0,,
,,,,,,,,,,,,,,,,,,,,,,,2,474,2022-03-05_08h54.05.949,tareaTDv3,2020.2.5,Win32,60,,,right,0.0,1.2722,0.0,62.0,62.0,21.0,1.0,10000.0,0.0,40000.0,91.0,,
,,,,,,,,,,,,,,,,,,,,,,,2,474,2022-03-05_08h54.05.949,tareaTDv3,2020.2.5,Win32,60,,,right,0.0,1.625,0.0,63.0,63.0,84.0,1.0,25000.0,0.0,150000.0,89.0,,
,,,,,,,,,,,,,,,,,,,,,,,2,474,2022-03-05_08h54.05.949,tareaTDv3,2020.2.5,Win32,60,,,right,1.0,1.5565,0.0,64.0,64.0,37.0,1.0,5000.0,0.0,56000.0,9.0,,
,,,,,,,,,,,,,,,,,,,,,,,2,474,2022-03-05_08h54.05.949,tareaTDv3,2020.2.5,Win32,60,,,left,0.0,1.5403,0.0,65.0,65.0,87.0,1.0,25000.0,0.0,75000.0,151.0,,
,,,,,,,,,,,,,,,,,,,,,,,2,474,2022-03-05_08h54.05.949,tareaTDv3,2020.2.5,Win32,60,,,right,1.0,3.2402,0.0,66.0,66.0,29.0,1.0,10000.0,0.0,151000.0,151.0,,
,,,,,,,,,,,,,,,,,,,,,,,2,474,2022-03-05_08h54.05.949,tareaTDv3,2020.2.5,Win32,60,,,right,0.0,4.8225,0.0,67.0,67.0,52.0,1.0,5000.0,0.0,56000.0,89.0,,
,,,,,,,,,,,,,,,,,,,,,,,2,474,2022-03-05_08h54.05.949,tareaTDv3,2020.2.5,Win32,60,,,left,1.0,1.5234,0.0,68.0,68.0,69.0,1.0,25000.0,0.0,150000.0,9.0,,
,,,,,,,,,,,,,,,,,,,,,,,2,474,2022-03-05_08h54.05.949,tareaTDv3,2020.2.5,Win32,60,,,right,1.0,2.8232,0.0,69.0,69.0,7.0,1.0,10000.0,0.0,59000.0,9.0,,
,,,,,,,,,,,,,,,,,,,,,,,2,474,2022-03-05_08h54.05.949,tareaTDv3,2020.2.5,Win32,60,,,left,0.0,4.5401,0.0,70.0,70.0,85.0,1.0,25000.0,0.0,35000.0,150.0,,
,,,,,,,,,,,,,,,,,,,,,,,2,474,2022-03-05_08h54.05.949,tareaTDv3,2020.2.5,Win32,60,,,left,1.0,2.3565,0.0,71.0,71.0,13.0,1.0,10000.0,0.0,111000.0,30.0,,
,,,,,,,,,,,,,,,,,,,,,,,2,474,2022-03-05_08h54.05.949,tareaTDv3,2020.2.5,Win32,60,,,right,1.0,6.7231,0.0,72.0,72.0,23.0,1.0,10000.0,0.0,110000.0,90.0,,
,,,,,,,,,,,,,,,,,,,,,,,2,474,2022-03-05_08h54.05.949,tareaTDv3,2020.2.5,Win32,60,,,left,1.0,10.4731,0.0,73.0,73.0,34.0,1.0,5000.0,0.0,151000.0,4.0,,
,,,,,,,,,,,,,,,,,,,,,,,2,474,2022-03-05_08h54.05.949,tareaTDv3,2020.2.5,Win32,60,,,left,1.0,1.2572,0.0,74.0,74.0,66.0,1.0,25000.0,0.0,55000.0,11.0,,
,,,,,,,,,,,,,,,,,,,,,,,2,474,2022-03-05_08h54.05.949,tareaTDv3,2020.2.5,Win32,60,,,left,0.0,5.0398,0.0,75.0,75.0,70.0,1.0,25000.0,0.0,35000.0,30.0,,
,,,,,,,,,,,,,,,,,,,,,,,2,474,2022-03-05_08h54.05.949,tareaTDv3,2020.2.5,Win32,60,,,left,1.0,0.623,0.0,76.0,76.0,61.0,1.0,25000.0,0.0,55000.0,6.0,,
,,,,,,,,,,,,,,,,,,,,,,,2,474,2022-03-05_08h54.05.949,tareaTDv3,2020.2.5,Win32,60,,,left,1.0,1.1757,0.0,77.0,77.0,65.0,1.0,25000.0,0.0,35000.0,11.0,,
,,,,,,,,,,,,,,,,,,,,,,,2,474,2022-03-05_08h54.05.949,tareaTDv3,2020.2.5,Win32,60,,,left,0.0,2.8068,0.0,78.0,78.0,83.0,1.0,25000.0,0.0,125000.0,89.0,,
,,,,,,,,,,,,,,,,,,,,,,,2,474,2022-03-05_08h54.05.949,tareaTDv3,2020.2.5,Win32,60,,,right,0.0,2.0898,0.0,79.0,79.0,47.0,1.0,5000.0,0.0,56000.0,60.0,,
,,,,,,,,,,,,,,,,,,,,,,,2,474,2022-03-05_08h54.05.949,tareaTDv3,2020.2.5,Win32,60,,,left,1.0,19.3228,0.0,80.0,80.0,17.0,1.0,10000.0,0.0,60000.0,60.0,,
,,,,,,,,,,,,,,,,,,,,,,,2,474,2022-03-05_08h54.05.949,tareaTDv3,2020.2.5,Win32,60,,,left,0.0,4.9395,0.0,81.0,81.0,10.0,1.0,10000.0,0.0,21000.0,31.0,,
,,,,,,,,,,,,,,,,,,,,,,,2,474,2022-03-05_08h54.05.949,tareaTDv3,2020.2.5,Win32,60,,,left,1.0,0.6894,0.0,82.0,82.0,64.0,1.0,25000.0,0.0,150000.0,4.0,,
,,,,,,,,,,,,,,,,,,,,,,,2,474,2022-03-05_08h54.05.949,tareaTDv3,2020.2.5,Win32,60,,,left,1.0,3.1253,0.0,83.0,83.0,33.0,1.0,5000.0,0.0,104000.0,5.0,,
,,,,,,,,,,,,,,,,,,,,,,,2,474,2022-03-05_08h54.05.949,tareaTDv3,2020.2.5,Win32,60,,,left,0.0,3.8229,0.0,84.0,84.0,5.0,1.0,10000.0,0.0,19000.0,11.0,,
,,,,,,,,,,,,,,,,,,,,,,,2,474,2022-03-05_08h54.05.949,tareaTDv3,2020.2.5,Win32,60,,,left,1.0,1.4228,0.0,85.0,85.0,68.0,1.0,25000.0,0.0,125000.0,9.0,,
,,,,,,,,,,,,,,,,,,,,,,,2,474,2022-03-05_08h54.05.949,tareaTDv3,2020.2.5,Win32,60,,,right,0.0,0.9598,0.0,86.0,86.0,41.0,1.0,5000.0,0.0,35000.0,31.0,,
,,,,,,,,,,,,,,,,,,,,,,,2,474,2022-03-05_08h54.05.949,tareaTDv3,2020.2.5,Win32,60,,,right,0.0,1.5734,0.0,87.0,87.0,11.0,1.0,10000.0,0.0,39000.0,29.0,,
,,,,,,,,,,,,,,,,,,,,,,,2,474,2022-03-05_08h54.05.949,tareaTDv3,2020.2.5,Win32,60,,,left,0.0,1.4226,0.0,88.0,88.0,27.0,1.0,10000.0,0.0,61000.0,150.0,,
,,,,,,,,,,,,,,,,,,,,,,,2,474,2022-03-05_08h54.05.949,tareaTDv3,2020.2.5,Win32,60,,,right,0.0,0.3234,0.0,89.0,89.0,50.0,1.0,5000.0,0.0,15000.0,91.0,,
,,,,,,,,,,,,,,,,,,,,,,,2,474,2022-03-05_08h54.05.949,tareaTDv3,2020.2.5,Win32,60,,,,,,,,,,,,,,,right,0.0205
