key1.keys,key1.rt,key2.keys,key2.rt,key2_2.keys,key2_2.rt,key2_3.keys,key2_3.rt,key3.keys,key3.rt,key4.keys,key4.rt,respP.keys,respP.corr,respP.rt,Practice.thisRepN,Practice.thisTrialN,Practice.thisN,Practice.thisIndex,Practice.ran,ssAmount,llAmount,llDelay,session,participant,date,expName,psychopyVersion,OS,frameRate,key5.keys,key5.rt,respT.keys,respT.corr,respT.rt,trials.thisRepN,trials.thisTrialN,trials.thisN,trials.thisIndex,trials.ran,ss_am,ss_del,ll_am,ll_del
space,5.0385,space,42.2144,space,19.2154,space,6.0991,right,5.0849,space,9.1507,left,1.0,8.134,0.0,0.0,0.0,0.0,1.0,10000.0,109000.0,9.0,2,488,2022-03-05_09h16.37.016,tareaTDv3,2020.2.5,Win32,60,,,,,,,,,,,,,,
,,,,,,,,,,,,left,0.0,5.0846,0.0,1.0,1.0,1.0,1.0,25000.0,35000.0,150.0,2,488,2022-03-05_09h16.37.016,tareaTDv3,2020.2.5,Win32,60,,,,,,,,,,,,,,
,,,,,,,,,,,,right,0.0,11.1846,0.0,2.0,2.0,2.0,1.0,10000.0,19000.0,89.0,2,488,2022-03-05_09h16.37.016,tareaTDv3,2020.2.5,Win32,60,,,,,,,,,,,,,,
,,,,,,,,,,,,,,,,,,,,,,,2,488,2022-03-05_09h16.37.016,tareaTDv3,2020.2.5,Win32,60,g,130.1345,left,0.0,5.0847,0.0,0.0,0.0,87.0,1.0,25000.0,0.0,75000.0,151.0
,,,,,,,,,,,,,,,,,,,,,,,2,488,2022-03-05_09h16.37.016,tareaTDv3,2020.2.5,Win32,60,,,right,1.0,4.068,0.0,1.0,1.0,48.0,1.0,5000.0,0.0,105000.0,60.0
,,,,,,,,,,,,,,,,,,,,,,,2,488,2022-03-05_09h16.37.016,tareaTDv3,2020.2.5,Win32,60,,,left,1.0,4.0659,0.0,2.0,2.0,32.0,1.0,5000.0,0.0,54000.0,5.0
,,,,,,,,,,,,,,,,,,,,,,,2,488,2022-03-05_09h16.37.016,tareaTDv3,2020.2.5,Win32,60,,,left,1.0,3.0512,0.0,3.0,3.0,63.0,1.0,25000.0,0.0,125000.0,4.0
,,,,,,,,,,,,,,,,,,,,,,,2,488,2022-03-05_09h16.37.016,tareaTDv3,2020.2.5,Win32,60,,,right,0.0,3.0506,0.0,4.0,4.0,80.0,1.0,25000.0,0.0,35000.0,90.0
,,,,,,,,,,,,,,,,,,,,,,,2,488,2022-03-05_09h16.37.016,tareaTDv3,2020.2.5,Win32,60,,,right,1.0,2.0343,0.0,5.0,5.0,41.0,1.0,5000.0,0.0,35000.0,31.0
,,,,,,,,,,,,,,,,,,,,,,,2,488,2022-03-05_09h16.37.016,tareaTDv3,2020.2.5,Win32,60,,,left,1.0,4.0684,0.0,6.0,6.0,74.0,1.0,25000.0,0.0,150000.0,29.0
,,,,,,,,,,,,,,,,,,,,,,,2,488,2022-03-05_09h16.37.016,tareaTDv3,2020.2.5,Win32,60,,,right,0.0,3.0498,0.0,7.0,7.0,55.0,1.0,5000.0,0.0,14000.0,149.0
,,,,,,,,,,,,,,,,,,,,,,,2,488,2022-03-05_09h16.37.016,tareaTDv3,2020.2.5,Win32,60,,,left,1.0,4.0669,0.0,8.0,8.0,30.0,1.0,5000.0,0.0,16000.0,4.0
,,,,,,,,,,,,,,,,,,,,,,,2,488,2022-03-05_09h16.37.016,tareaTDv3,2020.2.5,Win32,60,,,right,1.0,5.0849,0.0,9.0,9.0,77.0,1.0,25000.0,0.0,75000.0,59.0
,,,,,,,,,,,,,,,,,,,,,,,2,488,2022-03-05_09h16.37.016,tareaTDv3,2020.2.5,Win32,60,,,left,1.0,4.0675,0.0,10.0,10.0,72.0,1.0,25000.0,0.0,75000.0,31.0
,,,,,,,,,,,,,,,,,,,,,,,2,488,2022-03-05_09h16.37.016,tareaTDv3,2020.2.5,Win32,60,,,right,1.0,2.0357,0.0,11.0,11.0,53.0,1.0,5000.0,0.0,104000.0,90.0
,,,,,,,,,,,,,,,,,,,,,,,2,488,2022-03-05_09h16.37.016,tareaTDv3,2020.2.5,Win32,60,,,right,1.0,3.0525,0.0,12.0,12.0,10.0,1.0,10000.0,0.0,21000.0,31.0
,,,,,,,,,,,,,,,,,,,,,,,2,488,2022-03-05_09h16.37.016,tareaTDv3,2020.2.5,Win32,60,,,right,1.0,3.0517,0.0,13.0,13.0,14.0,1.0,10000.0,0.0,150000.0,30.0
,,,,,,,,,,,,,,,,,,,,,,,2,488,2022-03-05_09h16.37.016,tareaTDv3,2020.2.5,Win32,60,,,right,1.0,6.0983,0.0,14.0,14.0,71.0,1.0,25000.0,0.0,55000.0,30.0
,,,,,,,,,,,,,,,,,,,,,,,2,488,2022-03-05_09h16.37.016,tareaTDv3,2020.2.5,Win32,60,,,left,1.0,4.0686,0.0,15.0,15.0,17.0,1.0,10000.0,0.0,60000.0,60.0
,,,,,,,,,,,,,,,,,,,,,,,2,488,2022-03-05_09h16.37.016,tareaTDv3,2020.2.5,Win32,60,,,right,1.0,4.068,0.0,16.0,16.0,62.0,1.0,25000.0,0.0,75000.0,5.0
,,,,,,,,,,,,,,,,,,,,,,,2,488,2022-03-05_09h16.37.016,tareaTDv3,2020.2.5,Win32,60,,,right,1.0,5.0848,0.0,17.0,17.0,51.0,1.0,5000.0,0.0,35000.0,89.0
,,,,,,,,,,,,,,,,,,,,,,,2,488,2022-03-05_09h16.37.016,tareaTDv3,2020.2.5,Win32,60,,,left,0.0,5.0851,0.0,18.0,18.0,81.0,1.0,25000.0,0.0,55000.0,90.0
,,,,,,,,,,,,,,,,,,,,,,,2,488,2022-03-05_09h16.37.016,tareaTDv3,2020.2.5,Win32,60,,,right,1.0,3.0519,0.0,19.0,19.0,22.0,1.0,10000.0,0.0,61000.0,89.0
,,,,,,,,,,,,,,,,,,,,,,,2,488,2022-03-05_09h16.37.016,tareaTDv3,2020.2.5,Win32,60,,,left,0.0,4.0663,0.0,20.0,20.0,70.0,1.0,25000.0,0.0,35000.0,30.0
,,,,,,,,,,,,,,,,,,,,,,,2,488,2022-03-05_09h16.37.016,tareaTDv3,2020.2.5,Win32,60,,,right,1.0,4.0683,0.0,21.0,21.0,79.0,1.0,25000.0,0.0,150000.0,61.0
,,,,,,,,,,,,,,,,,,,,,,,2,488,2022-03-05_09h16.37.016,tareaTDv3,2020.2.5,Win32,60,,,left,0.0,5.0857,0.0,22.0,22.0,85.0,1.0,25000.0,0.0,35000.0,150.0
,,,,,,,,,,,,,,,,,,,,,,,2,488,2022-03-05_09h16.37.016,tareaTDv3,2020.2.5,Win32,60,,,right,1.0,8.1349,0.0,23.0,23.0,89.0,1.0,25000.0,0.0,150000.0,150.0
,,,,,,,,,,,,,,,,,,,,,,,2,488,2022-03-05_09h16.37.016,tareaTDv3,2020.2.5,Win32,60,,,right,0.0,4.0686,0.0,24.0,24.0,2.0,1.0,10000.0,0.0,61000.0,4.0
,,,,,,,,,,,,,,,,,,,,,,,2,488,2022-03-05_09h16.37.016,tareaTDv3,2020.2.5,Win32,60,,,right,1.0,3.0503,0.0,25.0,25.0,64.0,1.0,25000.0,0.0,150000.0,4.0
,,,,,,,,,,,,,,,,,,,,,,,2,488,2022-03-05_09h16.37.016,tareaTDv3,2020.2.5,Win32,60,,,left,1.0,4.0686,0.0,26.0,26.0,34.0,1.0,5000.0,0.0,151000.0,4.0
,,,,,,,,,,,,,,,,,,,,,,,2,488,2022-03-05_09h16.37.016,tareaTDv3,2020.2.5,Win32,60,,,left,0.0,4.068,0.0,27.0,27.0,56.0,1.0,5000.0,0.0,35000.0,150.0
,,,,,,,,,,,,,,,,,,,,,,,2,488,2022-03-05_09h16.37.016,tareaTDv3,2020.2.5,Win32,60,,,left,1.0,6.1018,0.0,28.0,28.0,7.0,1.0,10000.0,0.0,59000.0,9.0
,,,,,,,,,,,,,,,,,,,,,,,2,488,2022-03-05_09h16.37.016,tareaTDv3,2020.2.5,Win32,60,,,right,1.0,4.0679,0.0,29.0,29.0,35.0,1.0,5000.0,0.0,15000.0,11.0
,,,,,,,,,,,,,,,,,,,,,,,2,488,2022-03-05_09h16.37.016,tareaTDv3,2020.2.5,Win32,60,,,left,0.0,4.0686,0.0,30.0,30.0,67.0,1.0,25000.0,0.0,75000.0,10.0
,,,,,,,,,,,,,,,,,,,,,,,2,488,2022-03-05_09h16.37.016,tareaTDv3,2020.2.5,Win32,60,,,left,0.0,5.0852,0.0,31.0,31.0,25.0,1.0,10000.0,0.0,10000.0,150.0
,,,,,,,,,,,,,,,,,,,,,,,2,488,2022-03-05_09h16.37.016,tareaTDv3,2020.2.5,Win32,60,,,right,1.0,3.0521,0.0,32.0,32.0,1.0,1.0,10000.0,0.0,39000.0,6.0
,,,,,,,,,,,,,,,,,,,,,,,2,488,2022-03-05_09h16.37.016,tareaTDv3,2020.2.5,Win32,60,,,right,1.0,4.0679,0.0,33.0,33.0,0.0,1.0,10000.0,0.0,20000.0,5.0
,,,,,,,,,,,,,,,,,,,,,,,2,488,2022-03-05_09h16.37.016,tareaTDv3,2020.2.5,Win32,60,,,right,1.0,4.0694,0.0,34.0,34.0,58.0,1.0,5000.0,0.0,106000.0,152.0
,,,,,,,,,,,,,,,,,,,,,,,2,488,2022-03-05_09h16.37.016,tareaTDv3,2020.2.5,Win32,60,,,left,1.0,4.0665,0.0,35.0,35.0,43.0,1.0,5000.0,0.0,106000.0,29.0
,,,,,,,,,,,,,,,,,,,,,,,2,488,2022-03-05_09h16.37.016,tareaTDv3,2020.2.5,Win32,60,,,left,1.0,5.0849,0.0,36.0,36.0,5.0,1.0,10000.0,0.0,19000.0,11.0
,,,,,,,,,,,,,,,,,,,,,,,2,488,2022-03-05_09h16.37.016,tareaTDv3,2020.2.5,Win32,60,,,left,1.0,5.0849,0.0,37.0,37.0,52.0,1.0,5000.0,0.0,56000.0,89.0
,,,,,,,,,,,,,,,,,,,,,,,2,488,2022-03-05_09h16.37.016,tareaTDv3,2020.2.5,Win32,60,,,right,0.0,5.0843,0.0,38.0,38.0,29.0,1.0,10000.0,0.0,151000.0,151.0
,,,,,,,,,,,,,,,,,,,,,,,2,488,2022-03-05_09h16.37.016,tareaTDv3,2020.2.5,Win32,60,,,right,1.0,4.0677,0.0,39.0,39.0,11.0,1.0,10000.0,0.0,39000.0,29.0
,,,,,,,,,,,,,,,,,,,,,,,2,488,2022-03-05_09h16.37.016,tareaTDv3,2020.2.5,Win32,60,,,left,0.0,4.0686,0.0,40.0,40.0,57.0,1.0,5000.0,0.0,55000.0,151.0
,,,,,,,,,,,,,,,,,,,,,,,2,488,2022-03-05_09h16.37.016,tareaTDv3,2020.2.5,Win32,60,,,left,1.0,4.068,0.0,41.0,41.0,61.0,1.0,25000.0,0.0,55000.0,6.0
,,,,,,,,,,,,,,,,,,,,,,,2,488,2022-03-05_09h16.37.016,tareaTDv3,2020.2.5,Win32,60,,,right,0.0,5.0851,0.0,42.0,42.0,27.0,1.0,10000.0,0.0,61000.0,150.0
,,,,,,,,,,,,,,,,,,,,,,,2,488,2022-03-05_09h16.37.016,tareaTDv3,2020.2.5,Win32,60,,,right,1.0,6.1017,0.0,43.0,43.0,76.0,1.0,25000.0,0.0,55000.0,60.0
,,,,,,,,,,,,,,,,,,,,,,,2,488,2022-03-05_09h16.37.016,tareaTDv3,2020.2.5,Win32,60,,,left,1.0,5.0844,0.0,44.0,44.0,21.0,1.0,10000.0,0.0,40000.0,91.0
,,,,,,,,,,,,,,,,,,,,,,,2,488,2022-03-05_09h16.37.016,tareaTDv3,2020.2.5,Win32,60,,,right,1.0,4.0681,0.0,45.0,45.0,4.0,1.0,10000.0,0.0,150000.0,5.0
,,,,,,,,,,,,,,,,,,,,,,,2,488,2022-03-05_09h16.37.016,tareaTDv3,2020.2.5,Win32,60,,,left,1.0,5.0855,0.0,46.0,46.0,15.0,1.0,10000.0,0.0,20000.0,59.0
,,,,,,,,,,,,,,,,,,,,,,,2,488,2022-03-05_09h16.37.016,tareaTDv3,2020.2.5,Win32,60,,,right,0.0,4.0685,0.0,47.0,47.0,46.0,1.0,5000.0,0.0,36000.0,61.0
,,,,,,,,,,,,,,,,,,,,,,,2,488,2022-03-05_09h16.37.016,tareaTDv3,2020.2.5,Win32,60,,,left,1.0,4.0666,0.0,48.0,48.0,37.0,1.0,5000.0,0.0,56000.0,9.0
,,,,,,,,,,,,,,,,,,,,,,,2,488,2022-03-05_09h16.37.016,tareaTDv3,2020.2.5,Win32,60,,,right,1.0,3.0513,0.0,49.0,49.0,78.0,1.0,25000.0,0.0,125000.0,59.0
,,,,,,,,,,,,,,,,,,,,,,,2,488,2022-03-05_09h16.37.016,tareaTDv3,2020.2.5,Win32,60,,,right,1.0,8.1346,0.0,50.0,50.0,86.0,1.0,25000.0,0.0,55000.0,151.0
,,,,,,,,,,,,,,,,,,,,,,,2,488,2022-03-05_09h16.37.016,tareaTDv3,2020.2.5,Win32,60,,,left,0.0,4.0679,0.0,51.0,51.0,49.0,1.0,5000.0,0.0,149000.0,59.0
,,,,,,,,,,,,,,,,,,,,,,,2,488,2022-03-05_09h16.37.016,tareaTDv3,2020.2.5,Win32,60,,,right,1.0,8.1342,0.0,52.0,52.0,6.0,1.0,10000.0,0.0,40000.0,10.0
,,,,,,,,,,,,,,,,,,,,,,,2,488,2022-03-05_09h16.37.016,tareaTDv3,2020.2.5,Win32,60,,,left,1.0,5.0836,0.0,53.0,53.0,23.0,1.0,10000.0,0.0,110000.0,90.0
,,,,,,,,,,,,,,,,,,,,,,,2,488,2022-03-05_09h16.37.016,tareaTDv3,2020.2.5,Win32,60,,,left,1.0,5.0851,0.0,54.0,54.0,40.0,1.0,5000.0,0.0,14000.0,31.0
,,,,,,,,,,,,,,,,,,,,,,,2,488,2022-03-05_09h16.37.016,tareaTDv3,2020.2.5,Win32,60,,,right,0.0,4.069,0.0,55.0,55.0,88.0,1.0,25000.0,0.0,125000.0,149.0
,,,,,,,,,,,,,,,,,,,,,,,2,488,2022-03-05_09h16.37.016,tareaTDv3,2020.2.5,Win32,60,,,right,1.0,6.1004,0.0,56.0,56.0,68.0,1.0,25000.0,0.0,125000.0,9.0
,,,,,,,,,,,,,,,,,,,,,,,2,488,2022-03-05_09h16.37.016,tareaTDv3,2020.2.5,Win32,60,,,right,0.0,5.0862,0.0,57.0,57.0,50.0,1.0,5000.0,0.0,15000.0,91.0
,,,,,,,,,,,,,,,,,,,,,,,2,488,2022-03-05_09h16.37.016,tareaTDv3,2020.2.5,Win32,60,,,left,1.0,5.0841,0.0,58.0,58.0,44.0,1.0,5000.0,0.0,150000.0,30.0
,,,,,,,,,,,,,,,,,,,,,,,2,488,2022-03-05_09h16.37.016,tareaTDv3,2020.2.5,Win32,60,,,right,1.0,5.0844,0.0,59.0,59.0,47.0,1.0,5000.0,0.0,56000.0,60.0
,,,,,,,,,,,,,,,,,,,,,,,2,488,2022-03-05_09h16.37.016,tareaTDv3,2020.2.5,Win32,60,,,right,1.0,4.0693,0.0,60.0,60.0,9.0,1.0,10000.0,0.0,151000.0,11.0
,,,,,,,,,,,,,,,,,,,,,,,2,488,2022-03-05_09h16.37.016,tareaTDv3,2020.2.5,Win32,60,,,right,0.0,3.0494,0.0,61.0,61.0,28.0,1.0,10000.0,0.0,109000.0,149.0
,,,,,,,,,,,,,,,,,,,,,,,2,488,2022-03-05_09h16.37.016,tareaTDv3,2020.2.5,Win32,60,,,left,0.0,3.0522,0.0,62.0,62.0,75.0,1.0,25000.0,0.0,35000.0,60.0
,,,,,,,,,,,,,,,,,,,,,,,2,488,2022-03-05_09h16.37.016,tareaTDv3,2020.2.5,Win32,60,,,right,1.0,4.0668,0.0,63.0,63.0,8.0,1.0,10000.0,0.0,111000.0,10.0
,,,,,,,,,,,,,,,,,,,,,,,2,488,2022-03-05_09h16.37.016,tareaTDv3,2020.2.5,Win32,60,,,left,0.0,7.1191,0.0,64.0,64.0,66.0,1.0,25000.0,0.0,55000.0,11.0
,,,,,,,,,,,,,,,,,,,,,,,2,488,2022-03-05_09h16.37.016,tareaTDv3,2020.2.5,Win32,60,,,right,0.0,6.1015,0.0,65.0,65.0,16.0,1.0,10000.0,0.0,39000.0,59.0
,,,,,,,,,,,,,,,,,,,,,,,2,488,2022-03-05_09h16.37.016,tareaTDv3,2020.2.5,Win32,60,,,left,0.0,4.069,0.0,66.0,66.0,59.0,1.0,5000.0,0.0,151000.0,150.0
,,,,,,,,,,,,,,,,,,,,,,,2,488,2022-03-05_09h16.37.016,tareaTDv3,2020.2.5,Win32,60,,,right,1.0,3.051,0.0,67.0,67.0,69.0,1.0,25000.0,0.0,150000.0,9.0
,,,,,,,,,,,,,,,,,,,,,,,2,488,2022-03-05_09h16.37.016,tareaTDv3,2020.2.5,Win32,60,,,right,1.0,3.0513,0.0,68.0,68.0,33.0,1.0,5000.0,0.0,104000.0,5.0
,,,,,,,,,,,,,,,,,,,,,,,2,488,2022-03-05_09h16.37.016,tareaTDv3,2020.2.5,Win32,60,,,right,1.0,4.0678,0.0,69.0,69.0,19.0,1.0,10000.0,0.0,149000.0,61.0
,,,,,,,,,,,,,,,,,,,,,,,2,488,2022-03-05_09h16.37.016,tareaTDv3,2020.2.5,Win32,60,,,left,0.0,4.067,0.0,70.0,70.0,24.0,1.0,10000.0,0.0,149000.0,89.0
,,,,,,,,,,,,,,,,,,,,,,,2,488,2022-03-05_09h16.37.016,tareaTDv3,2020.2.5,Win32,60,,,right,1.0,3.0513,0.0,71.0,71.0,73.0,1.0,25000.0,0.0,125000.0,31.0
,,,,,,,,,,,,,,,,,,,,,,,2,488,2022-03-05_09h16.37.016,tareaTDv3,2020.2.5,Win32,60,,,left,1.0,3.0518,0.0,72.0,72.0,38.0,1.0,5000.0,0.0,104000.0,10.0
,,,,,,,,,,,,,,,,,,,,,,,2,488,2022-03-05_09h16.37.016,tareaTDv3,2020.2.5,Win32,60,,,right,1.0,4.0686,0.0,73.0,73.0,45.0,1.0,5000.0,0.0,15000.0,61.0
,,,,,,,,,,,,,,,,,,,,,,,2,488,2022-03-05_09h16.37.016,tareaTDv3,2020.2.5,Win32,60,,,left,1.0,3.0517,0.0,74.0,74.0,3.0,1.0,10000.0,0.0,109000.0,5.0
,,,,,,,,,,,,,,,,,,,,,,,2,488,2022-03-05_09h16.37.016,tareaTDv3,2020.2.5,Win32,60,,,left,1.0,4.0681,0.0,75.0,75.0,13.0,1.0,10000.0,0.0,111000.0,30.0
,,,,,,,,,,,,,,,,,,,,,,,2,488,2022-03-05_09h16.37.016,tareaTDv3,2020.2.5,Win32,60,,,right,1.0,4.0688,0.0,76.0,76.0,39.0,1.0,5000.0,0.0,149000.0,10.0
,,,,,,,,,,,,,,,,,,,,,,,2,488,2022-03-05_09h16.37.016,tareaTDv3,2020.2.5,Win32,60,,,right,0.0,3.051,0.0,77.0,77.0,84.0,1.0,25000.0,0.0,150000.0,89.0
,,,,,,,,,,,,,,,,,,,,,,,2,488,2022-03-05_09h16.37.016,tareaTDv3,2020.2.5,Win32,60,,,left,0.0,4.0688,0.0,78.0,78.0,18.0,1.0,10000.0,0.0,110000.0,60.0
,,,,,,,,,,,,,,,,,,,,,,,2,488,2022-03-05_09h16.37.016,tareaTDv3,2020.2.5,Win32,60,,,right,0.0,5.0852,0.0,79.0,79.0,60.0,1.0,25000.0,0.0,35000.0,5.0
,,,,,,,,,,,,,,,,,,,,,,,2,488,2022-03-05_09h16.37.016,tareaTDv3,2020.2.5,Win32,60,,,left,0.0,5.0863,0.0,80.0,80.0,20.0,1.0,10000.0,0.0,20000.0,90.0
,,,,,,,,,,,,,,,,,,,,,,,2,488,2022-03-05_09h16.37.016,tareaTDv3,2020.2.5,Win32,60,,,right,0.0,4.0664,0.0,81.0,81.0,82.0,1.0,25000.0,0.0,75000.0,90.0
,,,,,,,,,,,,,,,,,,,,,,,2,488,2022-03-05_09h16.37.016,tareaTDv3,2020.2.5,Win32,60,,,right,1.0,5.0837,0.0,82.0,82.0,83.0,1.0,25000.0,0.0,125000.0,89.0
,,,,,,,,,,,,,,,,,,,,,,,2,488,2022-03-05_09h16.37.016,tareaTDv3,2020.2.5,Win32,60,,,left,1.0,4.0694,0.0,83.0,83.0,36.0,1.0,5000.0,0.0,36000.0,9.0
,,,,,,,,,,,,,,,,,,,,,,,2,488,2022-03-05_09h16.37.016,tareaTDv3,2020.2.5,Win32,60,,,right,1.0,3.0515,0.0,84.0,84.0,31.0,1.0,5000.0,0.0,35000.0,6.0
,,,,,,,,,,,,,,,,,,,,,,,2,488,2022-03-05_09h16.37.016,tareaTDv3,2020.2.5,Win32,60,,,right,1.0,6.1,0.0,85.0,85.0,54.0,1.0,5000.0,0.0,150000.0,90.0
,,,,,,,,,,,,,,,,,,,,,,,2,488,2022-03-05_09h16.37.016,tareaTDv3,2020.2.5,Win32,60,,,right,0.0,5.0855,0.0,86.0,86.0,26.0,1.0,10000.0,0.0,39000.0,150.0
,,,,,,,,,,,,,,,,,,,,,,,2,488,2022-03-05_09h16.37.016,tareaTDv3,2020.2.5,Win32,60,,,right,0.0,5.085,0.0,87.0,87.0,12.0,1.0,10000.0,0.0,60000.0,29.0
,,,,,,,,,,,,,,,,,,,,,,,2,488,2022-03-05_09h16.37.016,tareaTDv3,2020.2.5,Win32,60,,,right,0.0,6.1015,0.0,88.0,88.0,65.0,1.0,25000.0,0.0,35000.0,11.0
,,,,,,,,,,,,,,,,,,,,,,,2,488,2022-03-05_09h16.37.016,tareaTDv3,2020.2.5,Win32,60,,,left,1.0,4.0672,0.0,89.0,89.0,42.0,1.0,5000.0,0.0,56000.0,29.0
