key1.keys,key1.rt,key2.keys,key2.rt,key2_2.keys,key2_2.rt,key2_3.keys,key2_3.rt,key3.keys,key3.rt,key4.keys,key4.rt,respP.keys,respP.corr,respP.rt,Practice.thisRepN,Practice.thisTrialN,Practice.thisN,Practice.thisIndex,Practice.ran,ssAmount,llAmount,llDelay,session,participant,date,expName,psychopyVersion,OS,frameRate,key5.keys,key5.rt,respT.keys,respT.corr,respT.rt,trials.thisRepN,trials.thisTrialN,trials.thisN,trials.thisIndex,trials.ran,ss_am,ss_del,ll_am,ll_del
space,4.0516,space,45.5183,space,13.3237,space,1.8716,left,1.5532,space,1.1484,right,0.0,1.2434,0.0,0.0,0.0,2.0,1.0,10000.0,19000.0,89.0,2,49,2021-10-30_08h57.16.668,tareaTDv3,2020.2.5,Win32,60,,,,,,,,,,,,,,
,,,,,,,,,,,,left,0.0,2.0766,0.0,1.0,1.0,1.0,1.0,25000.0,35000.0,150.0,2,49,2021-10-30_08h57.16.668,tareaTDv3,2020.2.5,Win32,60,,,,,,,,,,,,,,
,,,,,,,,,,,,right,1.0,1.2922,0.0,2.0,2.0,0.0,1.0,10000.0,109000.0,9.0,2,49,2021-10-30_08h57.16.668,tareaTDv3,2020.2.5,Win32,60,,,,,,,,,,,,,,
,,,,,,,,,,,,,,,,,,,,,,,2,49,2021-10-30_08h57.16.668,tareaTDv3,2020.2.5,Win32,60,g,38.7512,left,1.0,4.6171,0.0,0.0,0.0,47.0,1.0,5000.0,0.0,56000.0,60.0
,,,,,,,,,,,,,,,,,,,,,,,2,49,2021-10-30_08h57.16.668,tareaTDv3,2020.2.5,Win32,60,,,left,0.0,8.6057,0.0,1.0,1.0,39.0,1.0,5000.0,0.0,149000.0,10.0
,,,,,,,,,,,,,,,,,,,,,,,2,49,2021-10-30_08h57.16.668,tareaTDv3,2020.2.5,Win32,60,,,left,1.0,0.8282,0.0,2.0,2.0,31.0,1.0,5000.0,0.0,35000.0,6.0
,,,,,,,,,,,,,,,,,,,,,,,2,49,2021-10-30_08h57.16.668,tareaTDv3,2020.2.5,Win32,60,,,right,1.0,1.5506,0.0,3.0,3.0,6.0,1.0,10000.0,0.0,40000.0,10.0
,,,,,,,,,,,,,,,,,,,,,,,2,49,2021-10-30_08h57.16.668,tareaTDv3,2020.2.5,Win32,60,,,left,0.0,2.6587,0.0,4.0,4.0,59.0,1.0,5000.0,0.0,151000.0,150.0
,,,,,,,,,,,,,,,,,,,,,,,2,49,2021-10-30_08h57.16.668,tareaTDv3,2020.2.5,Win32,60,,,left,0.0,1.3722,0.0,5.0,5.0,81.0,1.0,25000.0,0.0,55000.0,90.0
,,,,,,,,,,,,,,,,,,,,,,,2,49,2021-10-30_08h57.16.668,tareaTDv3,2020.2.5,Win32,60,,,right,0.0,2.5518,0.0,6.0,6.0,25.0,1.0,10000.0,0.0,10000.0,150.0
,,,,,,,,,,,,,,,,,,,,,,,2,49,2021-10-30_08h57.16.668,tareaTDv3,2020.2.5,Win32,60,,,right,1.0,1.1723,0.0,7.0,7.0,76.0,1.0,25000.0,0.0,55000.0,60.0
,,,,,,,,,,,,,,,,,,,,,,,2,49,2021-10-30_08h57.16.668,tareaTDv3,2020.2.5,Win32,60,,,left,0.0,1.0502,0.0,8.0,8.0,51.0,1.0,5000.0,0.0,35000.0,89.0
,,,,,,,,,,,,,,,,,,,,,,,2,49,2021-10-30_08h57.16.668,tareaTDv3,2020.2.5,Win32,60,,,right,1.0,0.7377,0.0,9.0,9.0,60.0,1.0,25000.0,0.0,35000.0,5.0
,,,,,,,,,,,,,,,,,,,,,,,2,49,2021-10-30_08h57.16.668,tareaTDv3,2020.2.5,Win32,60,,,right,1.0,2.2177,0.0,10.0,10.0,48.0,1.0,5000.0,0.0,105000.0,60.0
,,,,,,,,,,,,,,,,,,,,,,,2,49,2021-10-30_08h57.16.668,tareaTDv3,2020.2.5,Win32,60,,,left,1.0,4.305,0.0,11.0,11.0,53.0,1.0,5000.0,0.0,104000.0,90.0
,,,,,,,,,,,,,,,,,,,,,,,2,49,2021-10-30_08h57.16.668,tareaTDv3,2020.2.5,Win32,60,,,right,1.0,3.3837,0.0,12.0,12.0,30.0,1.0,5000.0,0.0,16000.0,4.0
,,,,,,,,,,,,,,,,,,,,,,,2,49,2021-10-30_08h57.16.668,tareaTDv3,2020.2.5,Win32,60,,,right,1.0,4.6104,0.0,13.0,13.0,42.0,1.0,5000.0,0.0,56000.0,29.0
,,,,,,,,,,,,,,,,,,,,,,,2,49,2021-10-30_08h57.16.668,tareaTDv3,2020.2.5,Win32,60,,,left,0.0,0.8288,0.0,14.0,14.0,85.0,1.0,25000.0,0.0,35000.0,150.0
,,,,,,,,,,,,,,,,,,,,,,,2,49,2021-10-30_08h57.16.668,tareaTDv3,2020.2.5,Win32,60,,,left,1.0,6.45,0.0,15.0,15.0,5.0,1.0,10000.0,0.0,19000.0,11.0
,,,,,,,,,,,,,,,,,,,,,,,2,49,2021-10-30_08h57.16.668,tareaTDv3,2020.2.5,Win32,60,,,left,1.0,2.1603,0.0,16.0,16.0,44.0,1.0,5000.0,0.0,150000.0,30.0
,,,,,,,,,,,,,,,,,,,,,,,2,49,2021-10-30_08h57.16.668,tareaTDv3,2020.2.5,Win32,60,,,left,0.0,0.8935,0.0,17.0,17.0,24.0,1.0,10000.0,0.0,149000.0,89.0
,,,,,,,,,,,,,,,,,,,,,,,2,49,2021-10-30_08h57.16.668,tareaTDv3,2020.2.5,Win32,60,,,left,0.0,4.7669,0.0,18.0,18.0,52.0,1.0,5000.0,0.0,56000.0,89.0
,,,,,,,,,,,,,,,,,,,,,,,2,49,2021-10-30_08h57.16.668,tareaTDv3,2020.2.5,Win32,60,,,right,1.0,0.6572,0.0,19.0,19.0,82.0,1.0,25000.0,0.0,75000.0,90.0
,,,,,,,,,,,,,,,,,,,,,,,2,49,2021-10-30_08h57.16.668,tareaTDv3,2020.2.5,Win32,60,,,right,0.0,1.4846,0.0,20.0,20.0,45.0,1.0,5000.0,0.0,15000.0,61.0
,,,,,,,,,,,,,,,,,,,,,,,2,49,2021-10-30_08h57.16.668,tareaTDv3,2020.2.5,Win32,60,,,left,1.0,3.2673,0.0,21.0,21.0,61.0,1.0,25000.0,0.0,55000.0,6.0
,,,,,,,,,,,,,,,,,,,,,,,2,49,2021-10-30_08h57.16.668,tareaTDv3,2020.2.5,Win32,60,,,right,1.0,9.1362,0.0,22.0,22.0,68.0,1.0,25000.0,0.0,125000.0,9.0
,,,,,,,,,,,,,,,,,,,,,,,2,49,2021-10-30_08h57.16.668,tareaTDv3,2020.2.5,Win32,60,,,left,0.0,2.4223,0.0,23.0,23.0,75.0,1.0,25000.0,0.0,35000.0,60.0
,,,,,,,,,,,,,,,,,,,,,,,2,49,2021-10-30_08h57.16.668,tareaTDv3,2020.2.5,Win32,60,,,left,0.0,2.2639,0.0,24.0,24.0,16.0,1.0,10000.0,0.0,39000.0,59.0
,,,,,,,,,,,,,,,,,,,,,,,2,49,2021-10-30_08h57.16.668,tareaTDv3,2020.2.5,Win32,60,,,right,1.0,2.4515,0.0,25.0,25.0,64.0,1.0,25000.0,0.0,150000.0,4.0
,,,,,,,,,,,,,,,,,,,,,,,2,49,2021-10-30_08h57.16.668,tareaTDv3,2020.2.5,Win32,60,,,right,1.0,3.3446,0.0,26.0,26.0,14.0,1.0,10000.0,0.0,150000.0,30.0
,,,,,,,,,,,,,,,,,,,,,,,2,49,2021-10-30_08h57.16.668,tareaTDv3,2020.2.5,Win32,60,,,right,1.0,1.1677,0.0,27.0,27.0,69.0,1.0,25000.0,0.0,150000.0,9.0
,,,,,,,,,,,,,,,,,,,,,,,2,49,2021-10-30_08h57.16.668,tareaTDv3,2020.2.5,Win32,60,,,right,0.0,1.1558,0.0,28.0,28.0,56.0,1.0,5000.0,0.0,35000.0,150.0
,,,,,,,,,,,,,,,,,,,,,,,2,49,2021-10-30_08h57.16.668,tareaTDv3,2020.2.5,Win32,60,,,left,0.0,1.0789,0.0,29.0,29.0,29.0,1.0,10000.0,0.0,151000.0,151.0
,,,,,,,,,,,,,,,,,,,,,,,2,49,2021-10-30_08h57.16.668,tareaTDv3,2020.2.5,Win32,60,,,left,1.0,2.2879,0.0,30.0,30.0,9.0,1.0,10000.0,0.0,151000.0,11.0
,,,,,,,,,,,,,,,,,,,,,,,2,49,2021-10-30_08h57.16.668,tareaTDv3,2020.2.5,Win32,60,,,left,1.0,1.0621,0.0,31.0,31.0,0.0,1.0,10000.0,0.0,20000.0,5.0
,,,,,,,,,,,,,,,,,,,,,,,2,49,2021-10-30_08h57.16.668,tareaTDv3,2020.2.5,Win32,60,,,right,0.0,2.0786,0.0,32.0,32.0,23.0,1.0,10000.0,0.0,110000.0,90.0
,,,,,,,,,,,,,,,,,,,,,,,2,49,2021-10-30_08h57.16.668,tareaTDv3,2020.2.5,Win32,60,,,right,0.0,1.1519,0.0,33.0,33.0,86.0,1.0,25000.0,0.0,55000.0,151.0
,,,,,,,,,,,,,,,,,,,,,,,2,49,2021-10-30_08h57.16.668,tareaTDv3,2020.2.5,Win32,60,,,right,1.0,2.0357,0.0,34.0,34.0,40.0,1.0,5000.0,0.0,14000.0,31.0
,,,,,,,,,,,,,,,,,,,,,,,2,49,2021-10-30_08h57.16.668,tareaTDv3,2020.2.5,Win32,60,,,left,0.0,2.3405,0.0,35.0,35.0,84.0,1.0,25000.0,0.0,150000.0,89.0
,,,,,,,,,,,,,,,,,,,,,,,2,49,2021-10-30_08h57.16.668,tareaTDv3,2020.2.5,Win32,60,,,left,1.0,3.1947,0.0,36.0,36.0,38.0,1.0,5000.0,0.0,104000.0,10.0
,,,,,,,,,,,,,,,,,,,,,,,2,49,2021-10-30_08h57.16.668,tareaTDv3,2020.2.5,Win32,60,,,left,0.0,1.1468,0.0,37.0,37.0,17.0,1.0,10000.0,0.0,60000.0,60.0
,,,,,,,,,,,,,,,,,,,,,,,2,49,2021-10-30_08h57.16.668,tareaTDv3,2020.2.5,Win32,60,,,right,1.0,0.739,0.0,38.0,38.0,36.0,1.0,5000.0,0.0,36000.0,9.0
,,,,,,,,,,,,,,,,,,,,,,,2,49,2021-10-30_08h57.16.668,tareaTDv3,2020.2.5,Win32,60,,,left,0.0,4.2805,0.0,39.0,39.0,49.0,1.0,5000.0,0.0,149000.0,59.0
,,,,,,,,,,,,,,,,,,,,,,,2,49,2021-10-30_08h57.16.668,tareaTDv3,2020.2.5,Win32,60,,,right,1.0,1.618,0.0,40.0,40.0,32.0,1.0,5000.0,0.0,54000.0,5.0
,,,,,,,,,,,,,,,,,,,,,,,2,49,2021-10-30_08h57.16.668,tareaTDv3,2020.2.5,Win32,60,,,left,1.0,2.274,0.0,41.0,41.0,71.0,1.0,25000.0,0.0,55000.0,30.0
,,,,,,,,,,,,,,,,,,,,,,,2,49,2021-10-30_08h57.16.668,tareaTDv3,2020.2.5,Win32,60,,,right,1.0,1.8509,0.0,42.0,42.0,34.0,1.0,5000.0,0.0,151000.0,4.0
,,,,,,,,,,,,,,,,,,,,,,,2,49,2021-10-30_08h57.16.668,tareaTDv3,2020.2.5,Win32,60,,,left,1.0,2.0678,0.0,43.0,43.0,74.0,1.0,25000.0,0.0,150000.0,29.0
,,,,,,,,,,,,,,,,,,,,,,,2,49,2021-10-30_08h57.16.668,tareaTDv3,2020.2.5,Win32,60,,,right,1.0,0.5308,0.0,44.0,44.0,26.0,1.0,10000.0,0.0,39000.0,150.0
,,,,,,,,,,,,,,,,,,,,,,,2,49,2021-10-30_08h57.16.668,tareaTDv3,2020.2.5,Win32,60,,,right,1.0,1.744,0.0,45.0,45.0,2.0,1.0,10000.0,0.0,61000.0,4.0
,,,,,,,,,,,,,,,,,,,,,,,2,49,2021-10-30_08h57.16.668,tareaTDv3,2020.2.5,Win32,60,,,left,1.0,3.0381,0.0,46.0,46.0,41.0,1.0,5000.0,0.0,35000.0,31.0
,,,,,,,,,,,,,,,,,,,,,,,2,49,2021-10-30_08h57.16.668,tareaTDv3,2020.2.5,Win32,60,,,right,0.0,3.5907,0.0,47.0,47.0,88.0,1.0,25000.0,0.0,125000.0,149.0
,,,,,,,,,,,,,,,,,,,,,,,2,49,2021-10-30_08h57.16.668,tareaTDv3,2020.2.5,Win32,60,,,left,1.0,3.2262,0.0,48.0,48.0,66.0,1.0,25000.0,0.0,55000.0,11.0
,,,,,,,,,,,,,,,,,,,,,,,2,49,2021-10-30_08h57.16.668,tareaTDv3,2020.2.5,Win32,60,,,left,1.0,0.8438,0.0,49.0,49.0,1.0,1.0,10000.0,0.0,39000.0,6.0
,,,,,,,,,,,,,,,,,,,,,,,2,49,2021-10-30_08h57.16.668,tareaTDv3,2020.2.5,Win32,60,,,right,1.0,1.5143,0.0,50.0,50.0,33.0,1.0,5000.0,0.0,104000.0,5.0
,,,,,,,,,,,,,,,,,,,,,,,2,49,2021-10-30_08h57.16.668,tareaTDv3,2020.2.5,Win32,60,,,right,0.0,4.2282,0.0,51.0,51.0,20.0,1.0,10000.0,0.0,20000.0,90.0
,,,,,,,,,,,,,,,,,,,,,,,2,49,2021-10-30_08h57.16.668,tareaTDv3,2020.2.5,Win32,60,,,left,0.0,4.2542,0.0,52.0,52.0,80.0,1.0,25000.0,0.0,35000.0,90.0
,,,,,,,,,,,,,,,,,,,,,,,2,49,2021-10-30_08h57.16.668,tareaTDv3,2020.2.5,Win32,60,,,left,1.0,3.2381,0.0,53.0,53.0,21.0,1.0,10000.0,0.0,40000.0,91.0
,,,,,,,,,,,,,,,,,,,,,,,2,49,2021-10-30_08h57.16.668,tareaTDv3,2020.2.5,Win32,60,,,left,0.0,2.0397,0.0,54.0,54.0,83.0,1.0,25000.0,0.0,125000.0,89.0
,,,,,,,,,,,,,,,,,,,,,,,2,49,2021-10-30_08h57.16.668,tareaTDv3,2020.2.5,Win32,60,,,left,0.0,1.2573,0.0,55.0,55.0,28.0,1.0,10000.0,0.0,109000.0,149.0
,,,,,,,,,,,,,,,,,,,,,,,2,49,2021-10-30_08h57.16.668,tareaTDv3,2020.2.5,Win32,60,,,right,0.0,0.7137,0.0,56.0,56.0,89.0,1.0,25000.0,0.0,150000.0,150.0
,,,,,,,,,,,,,,,,,,,,,,,2,49,2021-10-30_08h57.16.668,tareaTDv3,2020.2.5,Win32,60,,,left,0.0,1.1214,0.0,57.0,57.0,22.0,1.0,10000.0,0.0,61000.0,89.0
,,,,,,,,,,,,,,,,,,,,,,,2,49,2021-10-30_08h57.16.668,tareaTDv3,2020.2.5,Win32,60,,,right,0.0,1.001,0.0,58.0,58.0,54.0,1.0,5000.0,0.0,150000.0,90.0
,,,,,,,,,,,,,,,,,,,,,,,2,49,2021-10-30_08h57.16.668,tareaTDv3,2020.2.5,Win32,60,,,right,0.0,0.7534,0.0,59.0,59.0,19.0,1.0,10000.0,0.0,149000.0,61.0
,,,,,,,,,,,,,,,,,,,,,,,2,49,2021-10-30_08h57.16.668,tareaTDv3,2020.2.5,Win32,60,,,left,1.0,0.7572,0.0,60.0,60.0,72.0,1.0,25000.0,0.0,75000.0,31.0
,,,,,,,,,,,,,,,,,,,,,,,2,49,2021-10-30_08h57.16.668,tareaTDv3,2020.2.5,Win32,60,,,right,1.0,0.7941,0.0,61.0,61.0,4.0,1.0,10000.0,0.0,150000.0,5.0
,,,,,,,,,,,,,,,,,,,,,,,2,49,2021-10-30_08h57.16.668,tareaTDv3,2020.2.5,Win32,60,,,right,0.0,0.9252,0.0,62.0,62.0,79.0,1.0,25000.0,0.0,150000.0,61.0
,,,,,,,,,,,,,,,,,,,,,,,2,49,2021-10-30_08h57.16.668,tareaTDv3,2020.2.5,Win32,60,,,left,1.0,2.4911,0.0,63.0,63.0,13.0,1.0,10000.0,0.0,111000.0,30.0
,,,,,,,,,,,,,,,,,,,,,,,2,49,2021-10-30_08h57.16.668,tareaTDv3,2020.2.5,Win32,60,,,right,1.0,1.0483,0.0,64.0,64.0,63.0,1.0,25000.0,0.0,125000.0,4.0
,,,,,,,,,,,,,,,,,,,,,,,2,49,2021-10-30_08h57.16.668,tareaTDv3,2020.2.5,Win32,60,,,right,0.0,0.9662,0.0,65.0,65.0,27.0,1.0,10000.0,0.0,61000.0,150.0
,,,,,,,,,,,,,,,,,,,,,,,2,49,2021-10-30_08h57.16.668,tareaTDv3,2020.2.5,Win32,60,,,left,1.0,4.6382,0.0,66.0,66.0,10.0,1.0,10000.0,0.0,21000.0,31.0
,,,,,,,,,,,,,,,,,,,,,,,2,49,2021-10-30_08h57.16.668,tareaTDv3,2020.2.5,Win32,60,,,left,0.0,4.4225,0.0,67.0,67.0,55.0,1.0,5000.0,0.0,14000.0,149.0
,,,,,,,,,,,,,,,,,,,,,,,2,49,2021-10-30_08h57.16.668,tareaTDv3,2020.2.5,Win32,60,,,right,1.0,1.2244,0.0,68.0,68.0,3.0,1.0,10000.0,0.0,109000.0,5.0
,,,,,,,,,,,,,,,,,,,,,,,2,49,2021-10-30_08h57.16.668,tareaTDv3,2020.2.5,Win32,60,,,left,0.0,1.7869,0.0,69.0,69.0,18.0,1.0,10000.0,0.0,110000.0,60.0
,,,,,,,,,,,,,,,,,,,,,,,2,49,2021-10-30_08h57.16.668,tareaTDv3,2020.2.5,Win32,60,,,left,0.0,4.9513,0.0,70.0,70.0,73.0,1.0,25000.0,0.0,125000.0,31.0
,,,,,,,,,,,,,,,,,,,,,,,2,49,2021-10-30_08h57.16.668,tareaTDv3,2020.2.5,Win32,60,,,right,0.0,1.268,0.0,71.0,71.0,58.0,1.0,5000.0,0.0,106000.0,152.0
,,,,,,,,,,,,,,,,,,,,,,,2,49,2021-10-30_08h57.16.668,tareaTDv3,2020.2.5,Win32,60,,,right,0.0,2.2742,0.0,72.0,72.0,78.0,1.0,25000.0,0.0,125000.0,59.0
,,,,,,,,,,,,,,,,,,,,,,,2,49,2021-10-30_08h57.16.668,tareaTDv3,2020.2.5,Win32,60,,,right,1.0,0.8739,0.0,73.0,73.0,35.0,1.0,5000.0,0.0,15000.0,11.0
,,,,,,,,,,,,,,,,,,,,,,,2,49,2021-10-30_08h57.16.668,tareaTDv3,2020.2.5,Win32,60,,,left,0.0,0.8899,0.0,74.0,74.0,57.0,1.0,5000.0,0.0,55000.0,151.0
,,,,,,,,,,,,,,,,,,,,,,,2,49,2021-10-30_08h57.16.668,tareaTDv3,2020.2.5,Win32,60,,,right,1.0,0.8336,0.0,75.0,75.0,8.0,1.0,10000.0,0.0,111000.0,10.0
,,,,,,,,,,,,,,,,,,,,,,,2,49,2021-10-30_08h57.16.668,tareaTDv3,2020.2.5,Win32,60,,,left,1.0,2.9868,0.0,76.0,76.0,12.0,1.0,10000.0,0.0,60000.0,29.0
,,,,,,,,,,,,,,,,,,,,,,,2,49,2021-10-30_08h57.16.668,tareaTDv3,2020.2.5,Win32,60,,,right,1.0,1.8616,0.0,77.0,77.0,11.0,1.0,10000.0,0.0,39000.0,29.0
,,,,,,,,,,,,,,,,,,,,,,,2,49,2021-10-30_08h57.16.668,tareaTDv3,2020.2.5,Win32,60,,,right,1.0,0.59,0.0,78.0,78.0,65.0,1.0,25000.0,0.0,35000.0,11.0
,,,,,,,,,,,,,,,,,,,,,,,2,49,2021-10-30_08h57.16.668,tareaTDv3,2020.2.5,Win32,60,,,left,1.0,1.0666,0.0,79.0,79.0,62.0,1.0,25000.0,0.0,75000.0,5.0
,,,,,,,,,,,,,,,,,,,,,,,2,49,2021-10-30_08h57.16.668,tareaTDv3,2020.2.5,Win32,60,,,left,1.0,1.3671,0.0,80.0,80.0,67.0,1.0,25000.0,0.0,75000.0,10.0
,,,,,,,,,,,,,,,,,,,,,,,2,49,2021-10-30_08h57.16.668,tareaTDv3,2020.2.5,Win32,60,,,right,1.0,1.0227,0.0,81.0,81.0,87.0,1.0,25000.0,0.0,75000.0,151.0
,,,,,,,,,,,,,,,,,,,,,,,2,49,2021-10-30_08h57.16.668,tareaTDv3,2020.2.5,Win32,60,,,left,1.0,4.234,0.0,82.0,82.0,70.0,1.0,25000.0,0.0,35000.0,30.0
,,,,,,,,,,,,,,,,,,,,,,,2,49,2021-10-30_08h57.16.668,tareaTDv3,2020.2.5,Win32,60,,,left,0.0,1.4262,0.0,83.0,83.0,46.0,1.0,5000.0,0.0,36000.0,61.0
,,,,,,,,,,,,,,,,,,,,,,,2,49,2021-10-30_08h57.16.668,tareaTDv3,2020.2.5,Win32,60,,,left,0.0,1.2898,0.0,84.0,84.0,15.0,1.0,10000.0,0.0,20000.0,59.0
,,,,,,,,,,,,,,,,,,,,,,,2,49,2021-10-30_08h57.16.668,tareaTDv3,2020.2.5,Win32,60,,,right,0.0,3.5958,0.0,85.0,85.0,77.0,1.0,25000.0,0.0,75000.0,59.0
,,,,,,,,,,,,,,,,,,,,,,,2,49,2021-10-30_08h57.16.668,tareaTDv3,2020.2.5,Win32,60,,,left,1.0,1.2822,0.0,86.0,86.0,37.0,1.0,5000.0,0.0,56000.0,9.0
,,,,,,,,,,,,,,,,,,,,,,,2,49,2021-10-30_08h57.16.668,tareaTDv3,2020.2.5,Win32,60,,,left,1.0,1.4386,0.0,87.0,87.0,7.0,1.0,10000.0,0.0,59000.0,9.0
,,,,,,,,,,,,,,,,,,,,,,,2,49,2021-10-30_08h57.16.668,tareaTDv3,2020.2.5,Win32,60,,,right,1.0,0.8662,0.0,88.0,88.0,43.0,1.0,5000.0,0.0,106000.0,29.0
,,,,,,,,,,,,,,,,,,,,,,,2,49,2021-10-30_08h57.16.668,tareaTDv3,2020.2.5,Win32,60,,,left,1.0,0.9851,0.0,89.0,89.0,50.0,1.0,5000.0,0.0,15000.0,91.0
