key1.keys,key1.rt,key2.keys,key2.rt,key2_2.keys,key2_2.rt,key2_3.keys,key2_3.rt,key3.keys,key3.rt,key4.keys,key4.rt,respP.keys,respP.corr,respP.rt,Practice.thisRepN,Practice.thisTrialN,Practice.thisN,Practice.thisIndex,Practice.ran,ssAmount,llAmount,llDelay,session,participant,date,expName,psychopyVersion,OS,frameRate,key5.keys,key5.rt,respT.keys,respT.corr,trials.thisRepN,trials.thisTrialN,trials.thisN,trials.thisIndex,trials.ran,ss_am,ss_del,ll_am,ll_del,respT.rt,key_resp_4.keys,key_resp_4.rt
space,2.557,space,13.167,space,13.033,space,4.05,left,5.516,space,1.596,right,1.0,2.521,0.0,0.0,0.0,0.0,1.0,10000.0,109000.0,9.0,2,55,2020-11-13_09h53.24.077,tareaTDv3,2020.2.5,MacIntel,60,,,,,,,,,,,,,,,,
,,,,,,,,,,,,right,0.0,4.281,0.0,1.0,1.0,2.0,1.0,10000.0,19000.0,89.0,2,55,2020-11-13_09h53.24.077,tareaTDv3,2020.2.5,MacIntel,60,,,,,,,,,,,,,,,,
,,,,,,,,,,,,right,0.0,2.132,0.0,2.0,2.0,1.0,1.0,25000.0,35000.0,150.0,2,55,2020-11-13_09h53.24.077,tareaTDv3,2020.2.5,MacIntel,60,,,,,,,,,,,,,,,,
,,,,,,,,,,,,,,,,,,,,,,,2,55,2020-11-13_09h53.24.077,tareaTDv3,2020.2.5,MacIntel,60,g,68.859,,0.0,0.0,0.0,0.0,58.0,1.0,5000.0,0.0,106000.0,152.0,,,
,,,,,,,,,,,,,,,,,,,,,,,2,55,2020-11-13_09h53.24.077,tareaTDv3,2020.2.5,MacIntel,60,,,right,0.0,0.0,1.0,1.0,40.0,1.0,5000.0,0.0,14000.0,31.0,14.198,,
,,,,,,,,,,,,,,,,,,,,,,,2,55,2020-11-13_09h53.24.077,tareaTDv3,2020.2.5,MacIntel,60,,,right,1.0,0.0,2.0,2.0,51.0,1.0,5000.0,0.0,35000.0,89.0,7.236,,
,,,,,,,,,,,,,,,,,,,,,,,2,55,2020-11-13_09h53.24.077,tareaTDv3,2020.2.5,MacIntel,60,,,left,1.0,0.0,3.0,3.0,23.0,1.0,10000.0,0.0,110000.0,90.0,3.187,,
,,,,,,,,,,,,,,,,,,,,,,,2,55,2020-11-13_09h53.24.077,tareaTDv3,2020.2.5,MacIntel,60,,,left,1.0,0.0,4.0,4.0,64.0,1.0,25000.0,0.0,150000.0,4.0,2.647,,
,,,,,,,,,,,,,,,,,,,,,,,2,55,2020-11-13_09h53.24.077,tareaTDv3,2020.2.5,MacIntel,60,,,left,1.0,0.0,5.0,5.0,37.0,1.0,5000.0,0.0,56000.0,9.0,2.069,,
,,,,,,,,,,,,,,,,,,,,,,,2,55,2020-11-13_09h53.24.077,tareaTDv3,2020.2.5,MacIntel,60,,,right,0.0,0.0,6.0,6.0,22.0,1.0,10000.0,0.0,61000.0,89.0,2.665,,
,,,,,,,,,,,,,,,,,,,,,,,2,55,2020-11-13_09h53.24.077,tareaTDv3,2020.2.5,MacIntel,60,,,right,1.0,0.0,7.0,7.0,0.0,1.0,10000.0,0.0,20000.0,5.0,3.441,,
,,,,,,,,,,,,,,,,,,,,,,,2,55,2020-11-13_09h53.24.077,tareaTDv3,2020.2.5,MacIntel,60,,,right,0.0,0.0,8.0,8.0,15.0,1.0,10000.0,0.0,20000.0,59.0,4.232,,
,,,,,,,,,,,,,,,,,,,,,,,2,55,2020-11-13_09h53.24.077,tareaTDv3,2020.2.5,MacIntel,60,,,right,0.0,0.0,9.0,9.0,28.0,1.0,10000.0,0.0,109000.0,149.0,8.053,,
,,,,,,,,,,,,,,,,,,,,,,,2,55,2020-11-13_09h53.24.077,tareaTDv3,2020.2.5,MacIntel,60,,,right,1.0,0.0,10.0,10.0,39.0,1.0,5000.0,0.0,149000.0,10.0,5.034,,
,,,,,,,,,,,,,,,,,,,,,,,2,55,2020-11-13_09h53.24.077,tareaTDv3,2020.2.5,MacIntel,60,,,left,1.0,0.0,11.0,11.0,19.0,1.0,10000.0,0.0,149000.0,61.0,3.67,,
,,,,,,,,,,,,,,,,,,,,,,,2,55,2020-11-13_09h53.24.077,tareaTDv3,2020.2.5,MacIntel,60,,,right,0.0,0.0,12.0,12.0,71.0,1.0,25000.0,0.0,55000.0,30.0,1.419,,
,,,,,,,,,,,,,,,,,,,,,,,2,55,2020-11-13_09h53.24.077,tareaTDv3,2020.2.5,MacIntel,60,,,left,1.0,0.0,13.0,13.0,61.0,1.0,25000.0,0.0,55000.0,6.0,4.317,,
,,,,,,,,,,,,,,,,,,,,,,,2,55,2020-11-13_09h53.24.077,tareaTDv3,2020.2.5,MacIntel,60,,,right,0.0,0.0,14.0,14.0,81.0,1.0,25000.0,0.0,55000.0,90.0,1.766,,
,,,,,,,,,,,,,,,,,,,,,,,2,55,2020-11-13_09h53.24.077,tareaTDv3,2020.2.5,MacIntel,60,,,left,0.0,0.0,15.0,15.0,55.0,1.0,5000.0,0.0,14000.0,149.0,1.997,,
,,,,,,,,,,,,,,,,,,,,,,,2,55,2020-11-13_09h53.24.077,tareaTDv3,2020.2.5,MacIntel,60,,,left,1.0,0.0,16.0,16.0,33.0,1.0,5000.0,0.0,104000.0,5.0,2.054,,
,,,,,,,,,,,,,,,,,,,,,,,2,55,2020-11-13_09h53.24.077,tareaTDv3,2020.2.5,MacIntel,60,,,right,1.0,0.0,17.0,17.0,6.0,1.0,10000.0,0.0,40000.0,10.0,3.683,,
,,,,,,,,,,,,,,,,,,,,,,,2,55,2020-11-13_09h53.24.077,tareaTDv3,2020.2.5,MacIntel,60,,,right,1.0,0.0,18.0,18.0,30.0,1.0,5000.0,0.0,16000.0,4.0,3.802,,
,,,,,,,,,,,,,,,,,,,,,,,2,55,2020-11-13_09h53.24.077,tareaTDv3,2020.2.5,MacIntel,60,,,left,0.0,0.0,19.0,19.0,10.0,1.0,10000.0,0.0,21000.0,31.0,2.255,,
,,,,,,,,,,,,,,,,,,,,,,,2,55,2020-11-13_09h53.24.077,tareaTDv3,2020.2.5,MacIntel,60,,,left,1.0,0.0,20.0,20.0,14.0,1.0,10000.0,0.0,150000.0,30.0,2.488,,
,,,,,,,,,,,,,,,,,,,,,,,2,55,2020-11-13_09h53.24.077,tareaTDv3,2020.2.5,MacIntel,60,,,left,0.0,0.0,21.0,21.0,89.0,1.0,25000.0,0.0,150000.0,150.0,1.935,,
,,,,,,,,,,,,,,,,,,,,,,,2,55,2020-11-13_09h53.24.077,tareaTDv3,2020.2.5,MacIntel,60,,,right,0.0,0.0,22.0,22.0,52.0,1.0,5000.0,0.0,56000.0,89.0,1.539,,
,,,,,,,,,,,,,,,,,,,,,,,2,55,2020-11-13_09h53.24.077,tareaTDv3,2020.2.5,MacIntel,60,,,right,0.0,0.0,23.0,23.0,56.0,1.0,5000.0,0.0,35000.0,150.0,2.639,,
,,,,,,,,,,,,,,,,,,,,,,,2,55,2020-11-13_09h53.24.077,tareaTDv3,2020.2.5,MacIntel,60,,,left,0.0,0.0,24.0,24.0,18.0,1.0,10000.0,0.0,110000.0,60.0,2.981,,
,,,,,,,,,,,,,,,,,,,,,,,2,55,2020-11-13_09h53.24.077,tareaTDv3,2020.2.5,MacIntel,60,,,left,0.0,0.0,25.0,25.0,77.0,1.0,25000.0,0.0,75000.0,59.0,3.647,,
,,,,,,,,,,,,,,,,,,,,,,,2,55,2020-11-13_09h53.24.077,tareaTDv3,2020.2.5,MacIntel,60,,,right,1.0,0.0,26.0,26.0,68.0,1.0,25000.0,0.0,125000.0,9.0,1.813,,
,,,,,,,,,,,,,,,,,,,,,,,2,55,2020-11-13_09h53.24.077,tareaTDv3,2020.2.5,MacIntel,60,,,left,1.0,0.0,27.0,27.0,74.0,1.0,25000.0,0.0,150000.0,29.0,1.971,,
,,,,,,,,,,,,,,,,,,,,,,,2,55,2020-11-13_09h53.24.077,tareaTDv3,2020.2.5,MacIntel,60,,,left,0.0,0.0,28.0,28.0,72.0,1.0,25000.0,0.0,75000.0,31.0,2.375,,
,,,,,,,,,,,,,,,,,,,,,,,2,55,2020-11-13_09h53.24.077,tareaTDv3,2020.2.5,MacIntel,60,,,left,1.0,0.0,29.0,29.0,63.0,1.0,25000.0,0.0,125000.0,4.0,2.754,,
,,,,,,,,,,,,,,,,,,,,,,,2,55,2020-11-13_09h53.24.077,tareaTDv3,2020.2.5,MacIntel,60,,,left,1.0,0.0,30.0,30.0,8.0,1.0,10000.0,0.0,111000.0,10.0,1.721,,
,,,,,,,,,,,,,,,,,,,,,,,2,55,2020-11-13_09h53.24.077,tareaTDv3,2020.2.5,MacIntel,60,,,left,1.0,0.0,31.0,31.0,32.0,1.0,5000.0,0.0,54000.0,5.0,2.456,,
,,,,,,,,,,,,,,,,,,,,,,,2,55,2020-11-13_09h53.24.077,tareaTDv3,2020.2.5,MacIntel,60,,,left,0.0,0.0,32.0,32.0,87.0,1.0,25000.0,0.0,75000.0,151.0,1.73,,
,,,,,,,,,,,,,,,,,,,,,,,2,55,2020-11-13_09h53.24.077,tareaTDv3,2020.2.5,MacIntel,60,,,right,0.0,0.0,33.0,33.0,86.0,1.0,25000.0,0.0,55000.0,151.0,1.664,,
,,,,,,,,,,,,,,,,,,,,,,,2,55,2020-11-13_09h53.24.077,tareaTDv3,2020.2.5,MacIntel,60,,,right,0.0,0.0,34.0,34.0,12.0,1.0,10000.0,0.0,60000.0,29.0,1.889,,
,,,,,,,,,,,,,,,,,,,,,,,2,55,2020-11-13_09h53.24.077,tareaTDv3,2020.2.5,MacIntel,60,,,left,1.0,0.0,35.0,35.0,9.0,1.0,10000.0,0.0,151000.0,11.0,2.098,,
,,,,,,,,,,,,,,,,,,,,,,,2,55,2020-11-13_09h53.24.077,tareaTDv3,2020.2.5,MacIntel,60,,,right,0.0,0.0,36.0,36.0,16.0,1.0,10000.0,0.0,39000.0,59.0,2.454,,
,,,,,,,,,,,,,,,,,,,,,,,2,55,2020-11-13_09h53.24.077,tareaTDv3,2020.2.5,MacIntel,60,,,right,0.0,0.0,37.0,37.0,21.0,1.0,10000.0,0.0,40000.0,91.0,2.052,,
,,,,,,,,,,,,,,,,,,,,,,,2,55,2020-11-13_09h53.24.077,tareaTDv3,2020.2.5,MacIntel,60,,,right,1.0,0.0,38.0,38.0,36.0,1.0,5000.0,0.0,36000.0,9.0,4.455,,
,,,,,,,,,,,,,,,,,,,,,,,2,55,2020-11-13_09h53.24.077,tareaTDv3,2020.2.5,MacIntel,60,,,left,1.0,0.0,39.0,39.0,54.0,1.0,5000.0,0.0,150000.0,90.0,2.564,,
,,,,,,,,,,,,,,,,,,,,,,,2,55,2020-11-13_09h53.24.077,tareaTDv3,2020.2.5,MacIntel,60,,,right,1.0,0.0,40.0,40.0,42.0,1.0,5000.0,0.0,56000.0,29.0,2.792,,
,,,,,,,,,,,,,,,,,,,,,,,2,55,2020-11-13_09h53.24.077,tareaTDv3,2020.2.5,MacIntel,60,,,,0.0,0.0,41.0,41.0,80.0,1.0,25000.0,0.0,35000.0,90.0,,,
,,,,,,,,,,,,,,,,,,,,,,,2,55,2020-11-13_09h53.24.077,tareaTDv3,2020.2.5,MacIntel,60,,,left,0.0,0.0,42.0,42.0,17.0,1.0,10000.0,0.0,60000.0,60.0,4.133,,
,,,,,,,,,,,,,,,,,,,,,,,2,55,2020-11-13_09h53.24.077,tareaTDv3,2020.2.5,MacIntel,60,,,left,1.0,0.0,43.0,43.0,31.0,1.0,5000.0,0.0,35000.0,6.0,1.699,,
,,,,,,,,,,,,,,,,,,,,,,,2,55,2020-11-13_09h53.24.077,tareaTDv3,2020.2.5,MacIntel,60,,,right,0.0,0.0,44.0,44.0,20.0,1.0,10000.0,0.0,20000.0,90.0,1.716,,
,,,,,,,,,,,,,,,,,,,,,,,2,55,2020-11-13_09h53.24.077,tareaTDv3,2020.2.5,MacIntel,60,,,left,1.0,0.0,45.0,45.0,66.0,1.0,25000.0,0.0,55000.0,11.0,3.74,,
,,,,,,,,,,,,,,,,,,,,,,,2,55,2020-11-13_09h53.24.077,tareaTDv3,2020.2.5,MacIntel,60,,,right,1.0,0.0,46.0,46.0,43.0,1.0,5000.0,0.0,106000.0,29.0,2.556,,
,,,,,,,,,,,,,,,,,,,,,,,2,55,2020-11-13_09h53.24.077,tareaTDv3,2020.2.5,MacIntel,60,,,left,0.0,0.0,47.0,47.0,88.0,1.0,25000.0,0.0,125000.0,149.0,2.179,,
,,,,,,,,,,,,,,,,,,,,,,,2,55,2020-11-13_09h53.24.077,tareaTDv3,2020.2.5,MacIntel,60,,,right,0.0,0.0,48.0,48.0,76.0,1.0,25000.0,0.0,55000.0,60.0,1.981,,
,,,,,,,,,,,,,,,,,,,,,,,2,55,2020-11-13_09h53.24.077,tareaTDv3,2020.2.5,MacIntel,60,,,right,0.0,0.0,49.0,49.0,53.0,1.0,5000.0,0.0,104000.0,90.0,4.025,,
,,,,,,,,,,,,,,,,,,,,,,,2,55,2020-11-13_09h53.24.077,tareaTDv3,2020.2.5,MacIntel,60,,,right,1.0,0.0,50.0,50.0,34.0,1.0,5000.0,0.0,151000.0,4.0,4.617,,
,,,,,,,,,,,,,,,,,,,,,,,2,55,2020-11-13_09h53.24.077,tareaTDv3,2020.2.5,MacIntel,60,,,left,1.0,0.0,51.0,51.0,60.0,1.0,25000.0,0.0,35000.0,5.0,7.597,,
,,,,,,,,,,,,,,,,,,,,,,,2,55,2020-11-13_09h53.24.077,tareaTDv3,2020.2.5,MacIntel,60,,,right,0.0,0.0,52.0,52.0,26.0,1.0,10000.0,0.0,39000.0,150.0,2.358,,
,,,,,,,,,,,,,,,,,,,,,,,2,55,2020-11-13_09h53.24.077,tareaTDv3,2020.2.5,MacIntel,60,,,left,1.0,0.0,53.0,53.0,4.0,1.0,10000.0,0.0,150000.0,5.0,3.249,,
,,,,,,,,,,,,,,,,,,,,,,,2,55,2020-11-13_09h53.24.077,tareaTDv3,2020.2.5,MacIntel,60,,,right,0.0,0.0,54.0,54.0,65.0,1.0,25000.0,0.0,35000.0,11.0,1.821,,
,,,,,,,,,,,,,,,,,,,,,,,2,55,2020-11-13_09h53.24.077,tareaTDv3,2020.2.5,MacIntel,60,,,right,1.0,0.0,55.0,55.0,7.0,1.0,10000.0,0.0,59000.0,9.0,2.772,,
,,,,,,,,,,,,,,,,,,,,,,,2,55,2020-11-13_09h53.24.077,tareaTDv3,2020.2.5,MacIntel,60,,,right,0.0,0.0,56.0,56.0,50.0,1.0,5000.0,0.0,15000.0,91.0,2.691,,
,,,,,,,,,,,,,,,,,,,,,,,2,55,2020-11-13_09h53.24.077,tareaTDv3,2020.2.5,MacIntel,60,,,left,0.0,0.0,57.0,57.0,78.0,1.0,25000.0,0.0,125000.0,59.0,1.662,,
,,,,,,,,,,,,,,,,,,,,,,,2,55,2020-11-13_09h53.24.077,tareaTDv3,2020.2.5,MacIntel,60,,,left,0.0,0.0,58.0,58.0,49.0,1.0,5000.0,0.0,149000.0,59.0,1.989,,
,,,,,,,,,,,,,,,,,,,,,,,2,55,2020-11-13_09h53.24.077,tareaTDv3,2020.2.5,MacIntel,60,,,right,1.0,0.0,59.0,59.0,1.0,1.0,10000.0,0.0,39000.0,6.0,1.379,,
,,,,,,,,,,,,,,,,,,,,,,,2,55,2020-11-13_09h53.24.077,tareaTDv3,2020.2.5,MacIntel,60,,,right,1.0,0.0,60.0,60.0,13.0,1.0,10000.0,0.0,111000.0,30.0,1.846,,
,,,,,,,,,,,,,,,,,,,,,,,2,55,2020-11-13_09h53.24.077,tareaTDv3,2020.2.5,MacIntel,60,,,left,1.0,0.0,61.0,61.0,2.0,1.0,10000.0,0.0,61000.0,4.0,2.9,,
,,,,,,,,,,,,,,,,,,,,,,,2,55,2020-11-13_09h53.24.077,tareaTDv3,2020.2.5,MacIntel,60,,,left,0.0,0.0,62.0,62.0,79.0,1.0,25000.0,0.0,150000.0,61.0,1.219,,
,,,,,,,,,,,,,,,,,,,,,,,2,55,2020-11-13_09h53.24.077,tareaTDv3,2020.2.5,MacIntel,60,,,left,0.0,0.0,63.0,63.0,69.0,1.0,25000.0,0.0,150000.0,9.0,0.936,,
,,,,,,,,,,,,,,,,,,,,,,,2,55,2020-11-13_09h53.24.077,tareaTDv3,2020.2.5,MacIntel,60,,,right,0.0,0.0,64.0,64.0,24.0,1.0,10000.0,0.0,149000.0,89.0,2.555,,
,,,,,,,,,,,,,,,,,,,,,,,2,55,2020-11-13_09h53.24.077,tareaTDv3,2020.2.5,MacIntel,60,,,left,0.0,0.0,65.0,65.0,45.0,1.0,5000.0,0.0,15000.0,61.0,2.119,,
,,,,,,,,,,,,,,,,,,,,,,,2,55,2020-11-13_09h53.24.077,tareaTDv3,2020.2.5,MacIntel,60,,,left,1.0,0.0,66.0,66.0,5.0,1.0,10000.0,0.0,19000.0,11.0,5.551,,
,,,,,,,,,,,,,,,,,,,,,,,2,55,2020-11-13_09h53.24.077,tareaTDv3,2020.2.5,MacIntel,60,,,left,0.0,0.0,67.0,67.0,84.0,1.0,25000.0,0.0,150000.0,89.0,2.631,,
,,,,,,,,,,,,,,,,,,,,,,,2,55,2020-11-13_09h53.24.077,tareaTDv3,2020.2.5,MacIntel,60,,,left,0.0,0.0,68.0,68.0,82.0,1.0,25000.0,0.0,75000.0,90.0,1.212,,
,,,,,,,,,,,,,,,,,,,,,,,2,55,2020-11-13_09h53.24.077,tareaTDv3,2020.2.5,MacIntel,60,,,left,0.0,0.0,69.0,69.0,48.0,1.0,5000.0,0.0,105000.0,60.0,1.607,,
,,,,,,,,,,,,,,,,,,,,,,,2,55,2020-11-13_09h53.24.077,tareaTDv3,2020.2.5,MacIntel,60,,,left,1.0,0.0,70.0,70.0,62.0,1.0,25000.0,0.0,75000.0,5.0,1.503,,
,,,,,,,,,,,,,,,,,,,,,,,2,55,2020-11-13_09h53.24.077,tareaTDv3,2020.2.5,MacIntel,60,,,right,0.0,0.0,71.0,71.0,83.0,1.0,25000.0,0.0,125000.0,89.0,0.77,,
,,,,,,,,,,,,,,,,,,,,,,,2,55,2020-11-13_09h53.24.077,tareaTDv3,2020.2.5,MacIntel,60,,,left,0.0,0.0,72.0,72.0,25.0,1.0,10000.0,0.0,10000.0,150.0,0.761,,
,,,,,,,,,,,,,,,,,,,,,,,2,55,2020-11-13_09h53.24.077,tareaTDv3,2020.2.5,MacIntel,60,,,right,0.0,0.0,73.0,73.0,85.0,1.0,25000.0,0.0,35000.0,150.0,1.496,,
,,,,,,,,,,,,,,,,,,,,,,,2,55,2020-11-13_09h53.24.077,tareaTDv3,2020.2.5,MacIntel,60,,,left,0.0,0.0,74.0,74.0,75.0,1.0,25000.0,0.0,35000.0,60.0,3.975,,
,,,,,,,,,,,,,,,,,,,,,,,2,55,2020-11-13_09h53.24.077,tareaTDv3,2020.2.5,MacIntel,60,,,left,1.0,0.0,75.0,75.0,38.0,1.0,5000.0,0.0,104000.0,10.0,5.057,,
,,,,,,,,,,,,,,,,,,,,,,,2,55,2020-11-13_09h53.24.077,tareaTDv3,2020.2.5,MacIntel,60,,,left,1.0,0.0,76.0,76.0,67.0,1.0,25000.0,0.0,75000.0,10.0,1.186,,
,,,,,,,,,,,,,,,,,,,,,,,2,55,2020-11-13_09h53.24.077,tareaTDv3,2020.2.5,MacIntel,60,,,left,0.0,0.0,77.0,77.0,70.0,1.0,25000.0,0.0,35000.0,30.0,1.247,,
,,,,,,,,,,,,,,,,,,,,,,,2,55,2020-11-13_09h53.24.077,tareaTDv3,2020.2.5,MacIntel,60,,,left,0.0,0.0,78.0,78.0,46.0,1.0,5000.0,0.0,36000.0,61.0,1.365,,
,,,,,,,,,,,,,,,,,,,,,,,2,55,2020-11-13_09h53.24.077,tareaTDv3,2020.2.5,MacIntel,60,,,right,0.0,0.0,79.0,79.0,29.0,1.0,10000.0,0.0,151000.0,151.0,1.015,,
,,,,,,,,,,,,,,,,,,,,,,,2,55,2020-11-13_09h53.24.077,tareaTDv3,2020.2.5,MacIntel,60,,,right,1.0,0.0,80.0,80.0,44.0,1.0,5000.0,0.0,150000.0,30.0,2.498,,
,,,,,,,,,,,,,,,,,,,,,,,2,55,2020-11-13_09h53.24.077,tareaTDv3,2020.2.5,MacIntel,60,,,left,0.0,0.0,81.0,81.0,41.0,1.0,5000.0,0.0,35000.0,31.0,2.662,,
,,,,,,,,,,,,,,,,,,,,,,,2,55,2020-11-13_09h53.24.077,tareaTDv3,2020.2.5,MacIntel,60,,,right,1.0,0.0,82.0,82.0,3.0,1.0,10000.0,0.0,109000.0,5.0,1.053,,
,,,,,,,,,,,,,,,,,,,,,,,2,55,2020-11-13_09h53.24.077,tareaTDv3,2020.2.5,MacIntel,60,,,right,1.0,0.0,83.0,83.0,73.0,1.0,25000.0,0.0,125000.0,31.0,2.705,,
,,,,,,,,,,,,,,,,,,,,,,,2,55,2020-11-13_09h53.24.077,tareaTDv3,2020.2.5,MacIntel,60,,,left,0.0,0.0,84.0,84.0,27.0,1.0,10000.0,0.0,61000.0,150.0,1.33,,
,,,,,,,,,,,,,,,,,,,,,,,2,55,2020-11-13_09h53.24.077,tareaTDv3,2020.2.5,MacIntel,60,,,left,0.0,0.0,85.0,85.0,57.0,1.0,5000.0,0.0,55000.0,151.0,1.747,,
,,,,,,,,,,,,,,,,,,,,,,,2,55,2020-11-13_09h53.24.077,tareaTDv3,2020.2.5,MacIntel,60,,,right,0.0,0.0,86.0,86.0,59.0,1.0,5000.0,0.0,151000.0,150.0,6.958,,
,,,,,,,,,,,,,,,,,,,,,,,2,55,2020-11-13_09h53.24.077,tareaTDv3,2020.2.5,MacIntel,60,,,right,1.0,0.0,87.0,87.0,35.0,1.0,5000.0,0.0,15000.0,11.0,1.406,,
,,,,,,,,,,,,,,,,,,,,,,,2,55,2020-11-13_09h53.24.077,tareaTDv3,2020.2.5,MacIntel,60,,,right,0.0,0.0,88.0,88.0,11.0,1.0,10000.0,0.0,39000.0,29.0,2.614,,
,,,,,,,,,,,,,,,,,,,,,,,2,55,2020-11-13_09h53.24.077,tareaTDv3,2020.2.5,MacIntel,60,,,left,0.0,0.0,89.0,89.0,47.0,1.0,5000.0,0.0,56000.0,60.0,1.279,,
,,,,,,,,,,,,,,,,,,,,,,,2,55,2020-11-13_09h53.24.077,tareaTDv3,2020.2.5,MacIntel,60,,,,,,,,,,,,,,,left,1.67
