key1.keys,key1.rt,key2.keys,key2.rt,key2_2.keys,key2_2.rt,key2_3.keys,key2_3.rt,key3.keys,key3.rt,key4.keys,key4.rt,respP.keys,respP.corr,respP.rt,Practice.thisRepN,Practice.thisTrialN,Practice.thisN,Practice.thisIndex,Practice.ran,ssAmount,llAmount,llDelay,session,participant,date,expName,psychopyVersion,OS,frameRate,key5.keys,key5.rt,respT.keys,respT.corr,respT.rt,trials.thisRepN,trials.thisTrialN,trials.thisN,trials.thisIndex,trials.ran,ss_am,ss_del,ll_am,ll_del,key_resp_4.keys,key_resp_4.rt
space,21.5315,space,19.3002,space,11.6759,space,3.6368,left,2.5682,space,1.1485,left,0.0,3.6095,0.0,0.0,0.0,2.0,1.0,10000.0,19000.0,89.0,24-09-22,70,2022-09-24_09h07.59.721,tareaTDv3,2020.2.5,Win32,60,,,,,,,,,,,,,,,,
,,,,,,,,,,,,left,0.0,3.4063,0.0,1.0,1.0,1.0,1.0,25000.0,35000.0,150.0,24-09-22,70,2022-09-24_09h07.59.721,tareaTDv3,2020.2.5,Win32,60,,,,,,,,,,,,,,,,
,,,,,,,,,,,,left,1.0,5.683,0.0,2.0,2.0,0.0,1.0,10000.0,109000.0,9.0,24-09-22,70,2022-09-24_09h07.59.721,tareaTDv3,2020.2.5,Win32,60,,,,,,,,,,,,,,,,
,,,,,,,,,,,,,,,,,,,,,,,24-09-22,70,2022-09-24_09h07.59.721,tareaTDv3,2020.2.5,Win32,60,g,6.2004,right,1.0,2.4085,0.0,0.0,0.0,8.0,1.0,10000.0,0.0,111000.0,10.0,,
,,,,,,,,,,,,,,,,,,,,,,,24-09-22,70,2022-09-24_09h07.59.721,tareaTDv3,2020.2.5,Win32,60,,,left,0.0,1.7176,0.0,1.0,1.0,57.0,1.0,5000.0,0.0,55000.0,151.0,,
,,,,,,,,,,,,,,,,,,,,,,,24-09-22,70,2022-09-24_09h07.59.721,tareaTDv3,2020.2.5,Win32,60,,,left,1.0,1.7076,0.0,2.0,2.0,14.0,1.0,10000.0,0.0,150000.0,30.0,,
,,,,,,,,,,,,,,,,,,,,,,,24-09-22,70,2022-09-24_09h07.59.721,tareaTDv3,2020.2.5,Win32,60,,,right,1.0,4.9525,0.0,3.0,3.0,39.0,1.0,5000.0,0.0,149000.0,10.0,,
,,,,,,,,,,,,,,,,,,,,,,,24-09-22,70,2022-09-24_09h07.59.721,tareaTDv3,2020.2.5,Win32,60,,,right,0.0,2.6892,0.0,4.0,4.0,76.0,1.0,25000.0,0.0,55000.0,60.0,,
,,,,,,,,,,,,,,,,,,,,,,,24-09-22,70,2022-09-24_09h07.59.721,tareaTDv3,2020.2.5,Win32,60,,,left,1.0,3.0531,0.0,5.0,5.0,75.0,1.0,25000.0,0.0,35000.0,60.0,,
,,,,,,,,,,,,,,,,,,,,,,,24-09-22,70,2022-09-24_09h07.59.721,tareaTDv3,2020.2.5,Win32,60,,,left,1.0,1.5384,0.0,6.0,6.0,52.0,1.0,5000.0,0.0,56000.0,89.0,,
,,,,,,,,,,,,,,,,,,,,,,,24-09-22,70,2022-09-24_09h07.59.721,tareaTDv3,2020.2.5,Win32,60,,,right,1.0,1.2007,0.0,7.0,7.0,71.0,1.0,25000.0,0.0,55000.0,30.0,,
,,,,,,,,,,,,,,,,,,,,,,,24-09-22,70,2022-09-24_09h07.59.721,tareaTDv3,2020.2.5,Win32,60,,,right,0.0,2.2174,0.0,8.0,8.0,65.0,1.0,25000.0,0.0,35000.0,11.0,,
,,,,,,,,,,,,,,,,,,,,,,,24-09-22,70,2022-09-24_09h07.59.721,tareaTDv3,2020.2.5,Win32,60,,,left,1.0,3.0035,0.0,9.0,9.0,18.0,1.0,10000.0,0.0,110000.0,60.0,,
,,,,,,,,,,,,,,,,,,,,,,,24-09-22,70,2022-09-24_09h07.59.721,tareaTDv3,2020.2.5,Win32,60,,,right,1.0,1.816,0.0,10.0,10.0,0.0,1.0,10000.0,0.0,20000.0,5.0,,
,,,,,,,,,,,,,,,,,,,,,,,24-09-22,70,2022-09-24_09h07.59.721,tareaTDv3,2020.2.5,Win32,60,,,right,0.0,2.8511,0.0,11.0,11.0,20.0,1.0,10000.0,0.0,20000.0,90.0,,
,,,,,,,,,,,,,,,,,,,,,,,24-09-22,70,2022-09-24_09h07.59.721,tareaTDv3,2020.2.5,Win32,60,,,left,1.0,2.244,0.0,12.0,12.0,79.0,1.0,25000.0,0.0,150000.0,61.0,,
,,,,,,,,,,,,,,,,,,,,,,,24-09-22,70,2022-09-24_09h07.59.721,tareaTDv3,2020.2.5,Win32,60,,,left,1.0,1.4499,0.0,13.0,13.0,7.0,1.0,10000.0,0.0,59000.0,9.0,,
,,,,,,,,,,,,,,,,,,,,,,,24-09-22,70,2022-09-24_09h07.59.721,tareaTDv3,2020.2.5,Win32,60,,,right,1.0,3.6689,0.0,14.0,14.0,84.0,1.0,25000.0,0.0,150000.0,89.0,,
,,,,,,,,,,,,,,,,,,,,,,,24-09-22,70,2022-09-24_09h07.59.721,tareaTDv3,2020.2.5,Win32,60,,,right,1.0,2.9508,0.0,15.0,15.0,47.0,1.0,5000.0,0.0,56000.0,60.0,,
,,,,,,,,,,,,,,,,,,,,,,,24-09-22,70,2022-09-24_09h07.59.721,tareaTDv3,2020.2.5,Win32,60,,,right,1.0,1.8353,0.0,16.0,16.0,46.0,1.0,5000.0,0.0,36000.0,61.0,,
,,,,,,,,,,,,,,,,,,,,,,,24-09-22,70,2022-09-24_09h07.59.721,tareaTDv3,2020.2.5,Win32,60,,,left,1.0,4.8925,0.0,17.0,17.0,51.0,1.0,5000.0,0.0,35000.0,89.0,,
,,,,,,,,,,,,,,,,,,,,,,,24-09-22,70,2022-09-24_09h07.59.721,tareaTDv3,2020.2.5,Win32,60,,,left,1.0,2.044,0.0,18.0,18.0,4.0,1.0,10000.0,0.0,150000.0,5.0,,
,,,,,,,,,,,,,,,,,,,,,,,24-09-22,70,2022-09-24_09h07.59.721,tareaTDv3,2020.2.5,Win32,60,,,left,0.0,2.1187,0.0,19.0,19.0,81.0,1.0,25000.0,0.0,55000.0,90.0,,
,,,,,,,,,,,,,,,,,,,,,,,24-09-22,70,2022-09-24_09h07.59.721,tareaTDv3,2020.2.5,Win32,60,,,left,0.0,3.5844,0.0,20.0,20.0,86.0,1.0,25000.0,0.0,55000.0,151.0,,
,,,,,,,,,,,,,,,,,,,,,,,24-09-22,70,2022-09-24_09h07.59.721,tareaTDv3,2020.2.5,Win32,60,,,left,0.0,2.8891,0.0,21.0,21.0,45.0,1.0,5000.0,0.0,15000.0,61.0,,
,,,,,,,,,,,,,,,,,,,,,,,24-09-22,70,2022-09-24_09h07.59.721,tareaTDv3,2020.2.5,Win32,60,,,left,1.0,11.4596,0.0,22.0,22.0,73.0,1.0,25000.0,0.0,125000.0,31.0,,
,,,,,,,,,,,,,,,,,,,,,,,24-09-22,70,2022-09-24_09h07.59.721,tareaTDv3,2020.2.5,Win32,60,,,right,0.0,1.5707,0.0,23.0,23.0,21.0,1.0,10000.0,0.0,40000.0,91.0,,
,,,,,,,,,,,,,,,,,,,,,,,24-09-22,70,2022-09-24_09h07.59.721,tareaTDv3,2020.2.5,Win32,60,,,right,1.0,2.6764,0.0,24.0,24.0,83.0,1.0,25000.0,0.0,125000.0,89.0,,
,,,,,,,,,,,,,,,,,,,,,,,24-09-22,70,2022-09-24_09h07.59.721,tareaTDv3,2020.2.5,Win32,60,,,left,1.0,2.4554,0.0,25.0,25.0,28.0,1.0,10000.0,0.0,109000.0,149.0,,
,,,,,,,,,,,,,,,,,,,,,,,24-09-22,70,2022-09-24_09h07.59.721,tareaTDv3,2020.2.5,Win32,60,,,right,1.0,2.4435,0.0,26.0,26.0,13.0,1.0,10000.0,0.0,111000.0,30.0,,
,,,,,,,,,,,,,,,,,,,,,,,24-09-22,70,2022-09-24_09h07.59.721,tareaTDv3,2020.2.5,Win32,60,,,left,1.0,3.9024,0.0,27.0,27.0,33.0,1.0,5000.0,0.0,104000.0,5.0,,
,,,,,,,,,,,,,,,,,,,,,,,24-09-22,70,2022-09-24_09h07.59.721,tareaTDv3,2020.2.5,Win32,60,,,left,1.0,1.6762,0.0,28.0,28.0,62.0,1.0,25000.0,0.0,75000.0,5.0,,
,,,,,,,,,,,,,,,,,,,,,,,24-09-22,70,2022-09-24_09h07.59.721,tareaTDv3,2020.2.5,Win32,60,,,right,1.0,1.4709,0.0,29.0,29.0,2.0,1.0,10000.0,0.0,61000.0,4.0,,
,,,,,,,,,,,,,,,,,,,,,,,24-09-22,70,2022-09-24_09h07.59.721,tareaTDv3,2020.2.5,Win32,60,,,right,1.0,0.726,0.0,30.0,30.0,36.0,1.0,5000.0,0.0,36000.0,9.0,,
,,,,,,,,,,,,,,,,,,,,,,,24-09-22,70,2022-09-24_09h07.59.721,tareaTDv3,2020.2.5,Win32,60,,,right,1.0,4.1219,0.0,31.0,31.0,63.0,1.0,25000.0,0.0,125000.0,4.0,,
,,,,,,,,,,,,,,,,,,,,,,,24-09-22,70,2022-09-24_09h07.59.721,tareaTDv3,2020.2.5,Win32,60,,,left,1.0,2.7487,0.0,32.0,32.0,10.0,1.0,10000.0,0.0,21000.0,31.0,,
,,,,,,,,,,,,,,,,,,,,,,,24-09-22,70,2022-09-24_09h07.59.721,tareaTDv3,2020.2.5,Win32,60,,,right,1.0,2.3869,0.0,33.0,33.0,54.0,1.0,5000.0,0.0,150000.0,90.0,,
,,,,,,,,,,,,,,,,,,,,,,,24-09-22,70,2022-09-24_09h07.59.721,tareaTDv3,2020.2.5,Win32,60,,,right,1.0,7.1611,0.0,34.0,34.0,12.0,1.0,10000.0,0.0,60000.0,29.0,,
,,,,,,,,,,,,,,,,,,,,,,,24-09-22,70,2022-09-24_09h07.59.721,tareaTDv3,2020.2.5,Win32,60,,,right,1.0,0.5442,0.0,35.0,35.0,41.0,1.0,5000.0,0.0,35000.0,31.0,,
,,,,,,,,,,,,,,,,,,,,,,,24-09-22,70,2022-09-24_09h07.59.721,tareaTDv3,2020.2.5,Win32,60,,,right,1.0,1.6426,0.0,36.0,36.0,37.0,1.0,5000.0,0.0,56000.0,9.0,,
,,,,,,,,,,,,,,,,,,,,,,,24-09-22,70,2022-09-24_09h07.59.721,tareaTDv3,2020.2.5,Win32,60,,,left,0.0,2.6591,0.0,37.0,37.0,27.0,1.0,10000.0,0.0,61000.0,150.0,,
,,,,,,,,,,,,,,,,,,,,,,,24-09-22,70,2022-09-24_09h07.59.721,tareaTDv3,2020.2.5,Win32,60,,,left,0.0,2.7566,0.0,38.0,38.0,29.0,1.0,10000.0,0.0,151000.0,151.0,,
,,,,,,,,,,,,,,,,,,,,,,,24-09-22,70,2022-09-24_09h07.59.721,tareaTDv3,2020.2.5,Win32,60,,,right,1.0,2.1883,0.0,39.0,39.0,74.0,1.0,25000.0,0.0,150000.0,29.0,,
,,,,,,,,,,,,,,,,,,,,,,,24-09-22,70,2022-09-24_09h07.59.721,tareaTDv3,2020.2.5,Win32,60,,,right,0.0,1.834,0.0,40.0,40.0,89.0,1.0,25000.0,0.0,150000.0,150.0,,
,,,,,,,,,,,,,,,,,,,,,,,24-09-22,70,2022-09-24_09h07.59.721,tareaTDv3,2020.2.5,Win32,60,,,right,1.0,4.9225,0.0,41.0,41.0,43.0,1.0,5000.0,0.0,106000.0,29.0,,
,,,,,,,,,,,,,,,,,,,,,,,24-09-22,70,2022-09-24_09h07.59.721,tareaTDv3,2020.2.5,Win32,60,,,left,0.0,4.0064,0.0,42.0,42.0,78.0,1.0,25000.0,0.0,125000.0,59.0,,
,,,,,,,,,,,,,,,,,,,,,,,24-09-22,70,2022-09-24_09h07.59.721,tareaTDv3,2020.2.5,Win32,60,,,left,0.0,1.7538,0.0,43.0,43.0,24.0,1.0,10000.0,0.0,149000.0,89.0,,
,,,,,,,,,,,,,,,,,,,,,,,24-09-22,70,2022-09-24_09h07.59.721,tareaTDv3,2020.2.5,Win32,60,,,right,1.0,1.3505,0.0,44.0,44.0,32.0,1.0,5000.0,0.0,54000.0,5.0,,
,,,,,,,,,,,,,,,,,,,,,,,24-09-22,70,2022-09-24_09h07.59.721,tareaTDv3,2020.2.5,Win32,60,,,left,0.0,3.5082,0.0,45.0,45.0,25.0,1.0,10000.0,0.0,10000.0,150.0,,
,,,,,,,,,,,,,,,,,,,,,,,24-09-22,70,2022-09-24_09h07.59.721,tareaTDv3,2020.2.5,Win32,60,,,right,0.0,3.4865,0.0,46.0,46.0,23.0,1.0,10000.0,0.0,110000.0,90.0,,
,,,,,,,,,,,,,,,,,,,,,,,24-09-22,70,2022-09-24_09h07.59.721,tareaTDv3,2020.2.5,Win32,60,,,right,0.0,2.302,0.0,47.0,47.0,58.0,1.0,5000.0,0.0,106000.0,152.0,,
,,,,,,,,,,,,,,,,,,,,,,,24-09-22,70,2022-09-24_09h07.59.721,tareaTDv3,2020.2.5,Win32,60,,,left,0.0,2.0015,0.0,48.0,48.0,87.0,1.0,25000.0,0.0,75000.0,151.0,,
,,,,,,,,,,,,,,,,,,,,,,,24-09-22,70,2022-09-24_09h07.59.721,tareaTDv3,2020.2.5,Win32,60,,,right,0.0,2.2362,0.0,49.0,49.0,50.0,1.0,5000.0,0.0,15000.0,91.0,,
,,,,,,,,,,,,,,,,,,,,,,,24-09-22,70,2022-09-24_09h07.59.721,tareaTDv3,2020.2.5,Win32,60,,,right,1.0,1.2548,0.0,50.0,50.0,53.0,1.0,5000.0,0.0,104000.0,90.0,,
,,,,,,,,,,,,,,,,,,,,,,,24-09-22,70,2022-09-24_09h07.59.721,tareaTDv3,2020.2.5,Win32,60,,,right,1.0,12.7179,0.0,51.0,51.0,3.0,1.0,10000.0,0.0,109000.0,5.0,,
,,,,,,,,,,,,,,,,,,,,,,,24-09-22,70,2022-09-24_09h07.59.721,tareaTDv3,2020.2.5,Win32,60,,,right,0.0,1.1698,0.0,52.0,52.0,88.0,1.0,25000.0,0.0,125000.0,149.0,,
,,,,,,,,,,,,,,,,,,,,,,,24-09-22,70,2022-09-24_09h07.59.721,tareaTDv3,2020.2.5,Win32,60,,,right,0.0,2.1625,0.0,53.0,53.0,80.0,1.0,25000.0,0.0,35000.0,90.0,,
,,,,,,,,,,,,,,,,,,,,,,,24-09-22,70,2022-09-24_09h07.59.721,tareaTDv3,2020.2.5,Win32,60,,,left,0.0,2.3005,0.0,54.0,54.0,17.0,1.0,10000.0,0.0,60000.0,60.0,,
,,,,,,,,,,,,,,,,,,,,,,,24-09-22,70,2022-09-24_09h07.59.721,tareaTDv3,2020.2.5,Win32,60,,,right,1.0,3.7887,0.0,55.0,55.0,49.0,1.0,5000.0,0.0,149000.0,59.0,,
,,,,,,,,,,,,,,,,,,,,,,,24-09-22,70,2022-09-24_09h07.59.721,tareaTDv3,2020.2.5,Win32,60,,,left,1.0,2.001,0.0,56.0,56.0,56.0,1.0,5000.0,0.0,35000.0,150.0,,
,,,,,,,,,,,,,,,,,,,,,,,24-09-22,70,2022-09-24_09h07.59.721,tareaTDv3,2020.2.5,Win32,60,,,right,0.0,2.1051,0.0,57.0,57.0,68.0,1.0,25000.0,0.0,125000.0,9.0,,
,,,,,,,,,,,,,,,,,,,,,,,24-09-22,70,2022-09-24_09h07.59.721,tareaTDv3,2020.2.5,Win32,60,,,right,1.0,8.0997,0.0,58.0,58.0,64.0,1.0,25000.0,0.0,150000.0,4.0,,
,,,,,,,,,,,,,,,,,,,,,,,24-09-22,70,2022-09-24_09h07.59.721,tareaTDv3,2020.2.5,Win32,60,,,left,1.0,1.4511,0.0,59.0,59.0,30.0,1.0,5000.0,0.0,16000.0,4.0,,
,,,,,,,,,,,,,,,,,,,,,,,24-09-22,70,2022-09-24_09h07.59.721,tareaTDv3,2020.2.5,Win32,60,,,right,0.0,1.2016,0.0,60.0,60.0,82.0,1.0,25000.0,0.0,75000.0,90.0,,
,,,,,,,,,,,,,,,,,,,,,,,24-09-22,70,2022-09-24_09h07.59.721,tareaTDv3,2020.2.5,Win32,60,,,right,1.0,1.7842,0.0,61.0,61.0,1.0,1.0,10000.0,0.0,39000.0,6.0,,
,,,,,,,,,,,,,,,,,,,,,,,24-09-22,70,2022-09-24_09h07.59.721,tareaTDv3,2020.2.5,Win32,60,,,left,1.0,6.7893,0.0,62.0,62.0,5.0,1.0,10000.0,0.0,19000.0,11.0,,
,,,,,,,,,,,,,,,,,,,,,,,24-09-22,70,2022-09-24_09h07.59.721,tareaTDv3,2020.2.5,Win32,60,,,right,0.0,3.1258,0.0,63.0,63.0,85.0,1.0,25000.0,0.0,35000.0,150.0,,
,,,,,,,,,,,,,,,,,,,,,,,24-09-22,70,2022-09-24_09h07.59.721,tareaTDv3,2020.2.5,Win32,60,,,right,1.0,4.5493,0.0,64.0,64.0,61.0,1.0,25000.0,0.0,55000.0,6.0,,
,,,,,,,,,,,,,,,,,,,,,,,24-09-22,70,2022-09-24_09h07.59.721,tareaTDv3,2020.2.5,Win32,60,,,right,0.0,1.5356,0.0,65.0,65.0,15.0,1.0,10000.0,0.0,20000.0,59.0,,
,,,,,,,,,,,,,,,,,,,,,,,24-09-22,70,2022-09-24_09h07.59.721,tareaTDv3,2020.2.5,Win32,60,,,right,0.0,2.9012,0.0,66.0,66.0,6.0,1.0,10000.0,0.0,40000.0,10.0,,
,,,,,,,,,,,,,,,,,,,,,,,24-09-22,70,2022-09-24_09h07.59.721,tareaTDv3,2020.2.5,Win32,60,,,left,1.0,3.4037,0.0,67.0,67.0,31.0,1.0,5000.0,0.0,35000.0,6.0,,
,,,,,,,,,,,,,,,,,,,,,,,24-09-22,70,2022-09-24_09h07.59.721,tareaTDv3,2020.2.5,Win32,60,,,left,0.0,6.2212,0.0,68.0,68.0,70.0,1.0,25000.0,0.0,35000.0,30.0,,
,,,,,,,,,,,,,,,,,,,,,,,24-09-22,70,2022-09-24_09h07.59.721,tareaTDv3,2020.2.5,Win32,60,,,right,1.0,2.7363,0.0,69.0,69.0,66.0,1.0,25000.0,0.0,55000.0,11.0,,
,,,,,,,,,,,,,,,,,,,,,,,24-09-22,70,2022-09-24_09h07.59.721,tareaTDv3,2020.2.5,Win32,60,,,left,1.0,2.7255,0.0,70.0,70.0,11.0,1.0,10000.0,0.0,39000.0,29.0,,
,,,,,,,,,,,,,,,,,,,,,,,24-09-22,70,2022-09-24_09h07.59.721,tareaTDv3,2020.2.5,Win32,60,,,right,0.0,5.57,0.0,71.0,71.0,19.0,1.0,10000.0,0.0,149000.0,61.0,,
,,,,,,,,,,,,,,,,,,,,,,,24-09-22,70,2022-09-24_09h07.59.721,tareaTDv3,2020.2.5,Win32,60,,,left,1.0,4.4676,0.0,72.0,72.0,60.0,1.0,25000.0,0.0,35000.0,5.0,,
,,,,,,,,,,,,,,,,,,,,,,,24-09-22,70,2022-09-24_09h07.59.721,tareaTDv3,2020.2.5,Win32,60,,,left,1.0,1.5999,0.0,73.0,73.0,67.0,1.0,25000.0,0.0,75000.0,10.0,,
,,,,,,,,,,,,,,,,,,,,,,,24-09-22,70,2022-09-24_09h07.59.721,tareaTDv3,2020.2.5,Win32,60,,,right,1.0,1.7045,0.0,74.0,74.0,77.0,1.0,25000.0,0.0,75000.0,59.0,,
,,,,,,,,,,,,,,,,,,,,,,,24-09-22,70,2022-09-24_09h07.59.721,tareaTDv3,2020.2.5,Win32,60,,,left,0.0,1.177,0.0,75.0,75.0,26.0,1.0,10000.0,0.0,39000.0,150.0,,
,,,,,,,,,,,,,,,,,,,,,,,24-09-22,70,2022-09-24_09h07.59.721,tareaTDv3,2020.2.5,Win32,60,,,left,0.0,0.4678,0.0,76.0,76.0,59.0,1.0,5000.0,0.0,151000.0,150.0,,
,,,,,,,,,,,,,,,,,,,,,,,24-09-22,70,2022-09-24_09h07.59.721,tareaTDv3,2020.2.5,Win32,60,,,left,1.0,1.0161,0.0,77.0,77.0,44.0,1.0,5000.0,0.0,150000.0,30.0,,
,,,,,,,,,,,,,,,,,,,,,,,24-09-22,70,2022-09-24_09h07.59.721,tareaTDv3,2020.2.5,Win32,60,,,right,1.0,0.99,0.0,78.0,78.0,38.0,1.0,5000.0,0.0,104000.0,10.0,,
,,,,,,,,,,,,,,,,,,,,,,,24-09-22,70,2022-09-24_09h07.59.721,tareaTDv3,2020.2.5,Win32,60,,,right,1.0,4.0925,0.0,79.0,79.0,69.0,1.0,25000.0,0.0,150000.0,9.0,,
,,,,,,,,,,,,,,,,,,,,,,,24-09-22,70,2022-09-24_09h07.59.721,tareaTDv3,2020.2.5,Win32,60,,,left,0.0,2.5835,0.0,80.0,80.0,48.0,1.0,5000.0,0.0,105000.0,60.0,,
,,,,,,,,,,,,,,,,,,,,,,,24-09-22,70,2022-09-24_09h07.59.721,tareaTDv3,2020.2.5,Win32,60,,,left,0.0,0.9681,0.0,81.0,81.0,22.0,1.0,10000.0,0.0,61000.0,89.0,,
,,,,,,,,,,,,,,,,,,,,,,,24-09-22,70,2022-09-24_09h07.59.721,tareaTDv3,2020.2.5,Win32,60,,,right,0.0,4.4674,0.0,82.0,82.0,16.0,1.0,10000.0,0.0,39000.0,59.0,,
,,,,,,,,,,,,,,,,,,,,,,,24-09-22,70,2022-09-24_09h07.59.721,tareaTDv3,2020.2.5,Win32,60,,,left,1.0,2.1061,0.0,83.0,83.0,42.0,1.0,5000.0,0.0,56000.0,29.0,,
,,,,,,,,,,,,,,,,,,,,,,,24-09-22,70,2022-09-24_09h07.59.721,tareaTDv3,2020.2.5,Win32,60,,,left,1.0,0.9044,0.0,84.0,84.0,35.0,1.0,5000.0,0.0,15000.0,11.0,,
,,,,,,,,,,,,,,,,,,,,,,,24-09-22,70,2022-09-24_09h07.59.721,tareaTDv3,2020.2.5,Win32,60,,,right,1.0,3.6478,0.0,85.0,85.0,9.0,1.0,10000.0,0.0,151000.0,11.0,,
,,,,,,,,,,,,,,,,,,,,,,,24-09-22,70,2022-09-24_09h07.59.721,tareaTDv3,2020.2.5,Win32,60,,,right,1.0,6.501,0.0,86.0,86.0,34.0,1.0,5000.0,0.0,151000.0,4.0,,
,,,,,,,,,,,,,,,,,,,,,,,24-09-22,70,2022-09-24_09h07.59.721,tareaTDv3,2020.2.5,Win32,60,,,left,1.0,1.9795,0.0,87.0,87.0,55.0,1.0,5000.0,0.0,14000.0,149.0,,
,,,,,,,,,,,,,,,,,,,,,,,24-09-22,70,2022-09-24_09h07.59.721,tareaTDv3,2020.2.5,Win32,60,,,left,1.0,1.5823,0.0,88.0,88.0,72.0,1.0,25000.0,0.0,75000.0,31.0,,
,,,,,,,,,,,,,,,,,,,,,,,24-09-22,70,2022-09-24_09h07.59.721,tareaTDv3,2020.2.5,Win32,60,,,left,0.0,1.1929,0.0,89.0,89.0,40.0,1.0,5000.0,0.0,14000.0,31.0,,
,,,,,,,,,,,,,,,,,,,,,,,24-09-22,70,2022-09-24_09h07.59.721,tareaTDv3,2020.2.5,Win32,60,,,,,,,,,,,,,,,right,1.0596
