key1.keys,key1.rt,key2.keys,key2.rt,key2_2.keys,key2_2.rt,key2_3.keys,key2_3.rt,key3.keys,key3.rt,key4.keys,key4.rt,respP.keys,respP.corr,respP.rt,Practice.thisRepN,Practice.thisTrialN,Practice.thisN,Practice.thisIndex,Practice.ran,ssAmount,llAmount,llDelay,session,participant,date,expName,psychopyVersion,OS,frameRate,key5.keys,key5.rt,respT.keys,respT.corr,respT.rt,trials.thisRepN,trials.thisTrialN,trials.thisN,trials.thisIndex,trials.ran,ss_am,ss_del,ll_am,ll_del
space,5.7937,space,36.3203,space,41.2534,space,6.1769,left,3.4589,space,2.3277,right,1.0,8.1546,0.0,0.0,0.0,0.0,1.0,10000.0,109000.0,9.0,07-09-2022,f442,2022-09-07_08h36.50.488,tareaTDv3,2020.2.5,Win32,60,,,,,,,,,,,,,,
,,,,,,,,,,,,left,0.0,3.3017,0.0,1.0,1.0,2.0,1.0,10000.0,19000.0,89.0,07-09-2022,f442,2022-09-07_08h36.50.488,tareaTDv3,2020.2.5,Win32,60,,,,,,,,,,,,,,
,,,,,,,,,,,,left,0.0,3.5362,0.0,2.0,2.0,1.0,1.0,25000.0,35000.0,150.0,07-09-2022,f442,2022-09-07_08h36.50.488,tareaTDv3,2020.2.5,Win32,60,,,,,,,,,,,,,,
,,,,,,,,,,,,,,,,,,,,,,,07-09-2022,f442,2022-09-07_08h36.50.488,tareaTDv3,2020.2.5,Win32,60,g,32.0038,left,0.0,4.7957,0.0,0.0,0.0,71.0,1.0,25000.0,0.0,55000.0,30.0
,,,,,,,,,,,,,,,,,,,,,,,07-09-2022,f442,2022-09-07_08h36.50.488,tareaTDv3,2020.2.5,Win32,60,,,right,1.0,7.3825,0.0,1.0,1.0,63.0,1.0,25000.0,0.0,125000.0,4.0
,,,,,,,,,,,,,,,,,,,,,,,07-09-2022,f442,2022-09-07_08h36.50.488,tareaTDv3,2020.2.5,Win32,60,,,right,0.0,7.0618,0.0,2.0,2.0,87.0,1.0,25000.0,0.0,75000.0,151.0
,,,,,,,,,,,,,,,,,,,,,,,07-09-2022,f442,2022-09-07_08h36.50.488,tareaTDv3,2020.2.5,Win32,60,,,left,1.0,9.7888,0.0,3.0,3.0,26.0,1.0,10000.0,0.0,39000.0,150.0
,,,,,,,,,,,,,,,,,,,,,,,07-09-2022,f442,2022-09-07_08h36.50.488,tareaTDv3,2020.2.5,Win32,60,,,right,1.0,4.8623,0.0,4.0,4.0,19.0,1.0,10000.0,0.0,149000.0,61.0
,,,,,,,,,,,,,,,,,,,,,,,07-09-2022,f442,2022-09-07_08h36.50.488,tareaTDv3,2020.2.5,Win32,60,,,left,1.0,5.2844,0.0,5.0,5.0,12.0,1.0,10000.0,0.0,60000.0,29.0
,,,,,,,,,,,,,,,,,,,,,,,07-09-2022,f442,2022-09-07_08h36.50.488,tareaTDv3,2020.2.5,Win32,60,,,right,0.0,4.6193,0.0,6.0,6.0,0.0,1.0,10000.0,0.0,20000.0,5.0
,,,,,,,,,,,,,,,,,,,,,,,07-09-2022,f442,2022-09-07_08h36.50.488,tareaTDv3,2020.2.5,Win32,60,,,left,1.0,5.8075,0.0,7.0,7.0,77.0,1.0,25000.0,0.0,75000.0,59.0
,,,,,,,,,,,,,,,,,,,,,,,07-09-2022,f442,2022-09-07_08h36.50.488,tareaTDv3,2020.2.5,Win32,60,,,left,1.0,1.6878,0.0,8.0,8.0,43.0,1.0,5000.0,0.0,106000.0,29.0
,,,,,,,,,,,,,,,,,,,,,,,07-09-2022,f442,2022-09-07_08h36.50.488,tareaTDv3,2020.2.5,Win32,60,,,left,1.0,4.8711,0.0,9.0,9.0,65.0,1.0,25000.0,0.0,35000.0,11.0
,,,,,,,,,,,,,,,,,,,,,,,07-09-2022,f442,2022-09-07_08h36.50.488,tareaTDv3,2020.2.5,Win32,60,,,right,1.0,3.6743,0.0,10.0,10.0,83.0,1.0,25000.0,0.0,125000.0,89.0
,,,,,,,,,,,,,,,,,,,,,,,07-09-2022,f442,2022-09-07_08h36.50.488,tareaTDv3,2020.2.5,Win32,60,,,left,0.0,3.8595,0.0,11.0,11.0,75.0,1.0,25000.0,0.0,35000.0,60.0
,,,,,,,,,,,,,,,,,,,,,,,07-09-2022,f442,2022-09-07_08h36.50.488,tareaTDv3,2020.2.5,Win32,60,,,right,1.0,4.7637,0.0,12.0,12.0,21.0,1.0,10000.0,0.0,40000.0,91.0
,,,,,,,,,,,,,,,,,,,,,,,07-09-2022,f442,2022-09-07_08h36.50.488,tareaTDv3,2020.2.5,Win32,60,,,left,0.0,3.1089,0.0,13.0,13.0,35.0,1.0,5000.0,0.0,15000.0,11.0
,,,,,,,,,,,,,,,,,,,,,,,07-09-2022,f442,2022-09-07_08h36.50.488,tareaTDv3,2020.2.5,Win32,60,,,left,1.0,1.2899,0.0,14.0,14.0,54.0,1.0,5000.0,0.0,150000.0,90.0
,,,,,,,,,,,,,,,,,,,,,,,07-09-2022,f442,2022-09-07_08h36.50.488,tareaTDv3,2020.2.5,Win32,60,,,right,1.0,6.0173,0.0,15.0,15.0,42.0,1.0,5000.0,0.0,56000.0,29.0
,,,,,,,,,,,,,,,,,,,,,,,07-09-2022,f442,2022-09-07_08h36.50.488,tareaTDv3,2020.2.5,Win32,60,,,right,1.0,2.2538,0.0,16.0,16.0,48.0,1.0,5000.0,0.0,105000.0,60.0
,,,,,,,,,,,,,,,,,,,,,,,07-09-2022,f442,2022-09-07_08h36.50.488,tareaTDv3,2020.2.5,Win32,60,,,left,1.0,3.4306,0.0,17.0,17.0,24.0,1.0,10000.0,0.0,149000.0,89.0
,,,,,,,,,,,,,,,,,,,,,,,07-09-2022,f442,2022-09-07_08h36.50.488,tareaTDv3,2020.2.5,Win32,60,,,right,1.0,2.5245,0.0,18.0,18.0,61.0,1.0,25000.0,0.0,55000.0,6.0
,,,,,,,,,,,,,,,,,,,,,,,07-09-2022,f442,2022-09-07_08h36.50.488,tareaTDv3,2020.2.5,Win32,60,,,left,0.0,1.3238,0.0,19.0,19.0,40.0,1.0,5000.0,0.0,14000.0,31.0
,,,,,,,,,,,,,,,,,,,,,,,07-09-2022,f442,2022-09-07_08h36.50.488,tareaTDv3,2020.2.5,Win32,60,,,left,1.0,1.9176,0.0,20.0,20.0,14.0,1.0,10000.0,0.0,150000.0,30.0
,,,,,,,,,,,,,,,,,,,,,,,07-09-2022,f442,2022-09-07_08h36.50.488,tareaTDv3,2020.2.5,Win32,60,,,right,1.0,3.6233,0.0,21.0,21.0,53.0,1.0,5000.0,0.0,104000.0,90.0
,,,,,,,,,,,,,,,,,,,,,,,07-09-2022,f442,2022-09-07_08h36.50.488,tareaTDv3,2020.2.5,Win32,60,,,right,1.0,1.9546,0.0,22.0,22.0,32.0,1.0,5000.0,0.0,54000.0,5.0
,,,,,,,,,,,,,,,,,,,,,,,07-09-2022,f442,2022-09-07_08h36.50.488,tareaTDv3,2020.2.5,Win32,60,,,right,0.0,1.7582,0.0,23.0,23.0,28.0,1.0,10000.0,0.0,109000.0,149.0
,,,,,,,,,,,,,,,,,,,,,,,07-09-2022,f442,2022-09-07_08h36.50.488,tareaTDv3,2020.2.5,Win32,60,,,left,0.0,2.1433,0.0,24.0,24.0,78.0,1.0,25000.0,0.0,125000.0,59.0
,,,,,,,,,,,,,,,,,,,,,,,07-09-2022,f442,2022-09-07_08h36.50.488,tareaTDv3,2020.2.5,Win32,60,,,right,0.0,1.3189,0.0,25.0,25.0,81.0,1.0,25000.0,0.0,55000.0,90.0
,,,,,,,,,,,,,,,,,,,,,,,07-09-2022,f442,2022-09-07_08h36.50.488,tareaTDv3,2020.2.5,Win32,60,,,left,1.0,5.0284,0.0,26.0,26.0,6.0,1.0,10000.0,0.0,40000.0,10.0
,,,,,,,,,,,,,,,,,,,,,,,07-09-2022,f442,2022-09-07_08h36.50.488,tareaTDv3,2020.2.5,Win32,60,,,right,1.0,2.8111,0.0,27.0,27.0,30.0,1.0,5000.0,0.0,16000.0,4.0
,,,,,,,,,,,,,,,,,,,,,,,07-09-2022,f442,2022-09-07_08h36.50.488,tareaTDv3,2020.2.5,Win32,60,,,left,0.0,2.2372,0.0,28.0,28.0,88.0,1.0,25000.0,0.0,125000.0,149.0
,,,,,,,,,,,,,,,,,,,,,,,07-09-2022,f442,2022-09-07_08h36.50.488,tareaTDv3,2020.2.5,Win32,60,,,right,1.0,1.6418,0.0,29.0,29.0,39.0,1.0,5000.0,0.0,149000.0,10.0
,,,,,,,,,,,,,,,,,,,,,,,07-09-2022,f442,2022-09-07_08h36.50.488,tareaTDv3,2020.2.5,Win32,60,,,left,0.0,4.7697,0.0,30.0,30.0,17.0,1.0,10000.0,0.0,60000.0,60.0
,,,,,,,,,,,,,,,,,,,,,,,07-09-2022,f442,2022-09-07_08h36.50.488,tareaTDv3,2020.2.5,Win32,60,,,left,0.0,2.0896,0.0,31.0,31.0,66.0,1.0,25000.0,0.0,55000.0,11.0
,,,,,,,,,,,,,,,,,,,,,,,07-09-2022,f442,2022-09-07_08h36.50.488,tareaTDv3,2020.2.5,Win32,60,,,left,0.0,0.996,0.0,32.0,32.0,49.0,1.0,5000.0,0.0,149000.0,59.0
,,,,,,,,,,,,,,,,,,,,,,,07-09-2022,f442,2022-09-07_08h36.50.488,tareaTDv3,2020.2.5,Win32,60,,,right,0.0,2.1378,0.0,33.0,33.0,70.0,1.0,25000.0,0.0,35000.0,30.0
,,,,,,,,,,,,,,,,,,,,,,,07-09-2022,f442,2022-09-07_08h36.50.488,tareaTDv3,2020.2.5,Win32,60,,,right,0.0,1.1964,0.0,34.0,34.0,25.0,1.0,10000.0,0.0,10000.0,150.0
,,,,,,,,,,,,,,,,,,,,,,,07-09-2022,f442,2022-09-07_08h36.50.488,tareaTDv3,2020.2.5,Win32,60,,,left,1.0,1.7812,0.0,35.0,35.0,4.0,1.0,10000.0,0.0,150000.0,5.0
,,,,,,,,,,,,,,,,,,,,,,,07-09-2022,f442,2022-09-07_08h36.50.488,tareaTDv3,2020.2.5,Win32,60,,,left,0.0,2.1891,0.0,36.0,36.0,76.0,1.0,25000.0,0.0,55000.0,60.0
,,,,,,,,,,,,,,,,,,,,,,,07-09-2022,f442,2022-09-07_08h36.50.488,tareaTDv3,2020.2.5,Win32,60,,,right,0.0,1.2365,0.0,37.0,37.0,55.0,1.0,5000.0,0.0,14000.0,149.0
,,,,,,,,,,,,,,,,,,,,,,,07-09-2022,f442,2022-09-07_08h36.50.488,tareaTDv3,2020.2.5,Win32,60,,,left,0.0,4.8675,0.0,38.0,38.0,89.0,1.0,25000.0,0.0,150000.0,150.0
,,,,,,,,,,,,,,,,,,,,,,,07-09-2022,f442,2022-09-07_08h36.50.488,tareaTDv3,2020.2.5,Win32,60,,,left,1.0,1.4839,0.0,39.0,39.0,68.0,1.0,25000.0,0.0,125000.0,9.0
,,,,,,,,,,,,,,,,,,,,,,,07-09-2022,f442,2022-09-07_08h36.50.488,tareaTDv3,2020.2.5,Win32,60,,,left,0.0,1.4194,0.0,40.0,40.0,45.0,1.0,5000.0,0.0,15000.0,61.0
,,,,,,,,,,,,,,,,,,,,,,,07-09-2022,f442,2022-09-07_08h36.50.488,tareaTDv3,2020.2.5,Win32,60,,,left,1.0,2.4819,0.0,41.0,41.0,1.0,1.0,10000.0,0.0,39000.0,6.0
,,,,,,,,,,,,,,,,,,,,,,,07-09-2022,f442,2022-09-07_08h36.50.488,tareaTDv3,2020.2.5,Win32,60,,,right,1.0,1.5023,0.0,42.0,42.0,36.0,1.0,5000.0,0.0,36000.0,9.0
,,,,,,,,,,,,,,,,,,,,,,,07-09-2022,f442,2022-09-07_08h36.50.488,tareaTDv3,2020.2.5,Win32,60,,,right,0.0,2.1977,0.0,43.0,43.0,10.0,1.0,10000.0,0.0,21000.0,31.0
,,,,,,,,,,,,,,,,,,,,,,,07-09-2022,f442,2022-09-07_08h36.50.488,tareaTDv3,2020.2.5,Win32,60,,,left,0.0,2.1378,0.0,44.0,44.0,74.0,1.0,25000.0,0.0,150000.0,29.0
,,,,,,,,,,,,,,,,,,,,,,,07-09-2022,f442,2022-09-07_08h36.50.488,tareaTDv3,2020.2.5,Win32,60,,,right,0.0,1.9464,0.0,45.0,45.0,5.0,1.0,10000.0,0.0,19000.0,11.0
,,,,,,,,,,,,,,,,,,,,,,,07-09-2022,f442,2022-09-07_08h36.50.488,tareaTDv3,2020.2.5,Win32,60,,,right,1.0,1.0578,0.0,46.0,46.0,2.0,1.0,10000.0,0.0,61000.0,4.0
,,,,,,,,,,,,,,,,,,,,,,,07-09-2022,f442,2022-09-07_08h36.50.488,tareaTDv3,2020.2.5,Win32,60,,,right,0.0,0.9377,0.0,47.0,47.0,16.0,1.0,10000.0,0.0,39000.0,59.0
,,,,,,,,,,,,,,,,,,,,,,,07-09-2022,f442,2022-09-07_08h36.50.488,tareaTDv3,2020.2.5,Win32,60,,,left,0.0,1.9071,0.0,48.0,48.0,59.0,1.0,5000.0,0.0,151000.0,150.0
,,,,,,,,,,,,,,,,,,,,,,,07-09-2022,f442,2022-09-07_08h36.50.488,tareaTDv3,2020.2.5,Win32,60,,,right,0.0,0.8401,0.0,49.0,49.0,82.0,1.0,25000.0,0.0,75000.0,90.0
,,,,,,,,,,,,,,,,,,,,,,,07-09-2022,f442,2022-09-07_08h36.50.488,tareaTDv3,2020.2.5,Win32,60,,,left,0.0,1.2857,0.0,50.0,50.0,57.0,1.0,5000.0,0.0,55000.0,151.0
,,,,,,,,,,,,,,,,,,,,,,,07-09-2022,f442,2022-09-07_08h36.50.488,tareaTDv3,2020.2.5,Win32,60,,,left,0.0,0.6986,0.0,51.0,51.0,44.0,1.0,5000.0,0.0,150000.0,30.0
,,,,,,,,,,,,,,,,,,,,,,,07-09-2022,f442,2022-09-07_08h36.50.488,tareaTDv3,2020.2.5,Win32,60,,,left,1.0,1.0609,0.0,52.0,52.0,3.0,1.0,10000.0,0.0,109000.0,5.0
,,,,,,,,,,,,,,,,,,,,,,,07-09-2022,f442,2022-09-07_08h36.50.488,tareaTDv3,2020.2.5,Win32,60,,,left,0.0,0.9827,0.0,53.0,53.0,18.0,1.0,10000.0,0.0,110000.0,60.0
,,,,,,,,,,,,,,,,,,,,,,,07-09-2022,f442,2022-09-07_08h36.50.488,tareaTDv3,2020.2.5,Win32,60,,,right,0.0,1.1732,0.0,54.0,54.0,51.0,1.0,5000.0,0.0,35000.0,89.0
,,,,,,,,,,,,,,,,,,,,,,,07-09-2022,f442,2022-09-07_08h36.50.488,tareaTDv3,2020.2.5,Win32,60,,,right,0.0,3.871,0.0,55.0,55.0,84.0,1.0,25000.0,0.0,150000.0,89.0
,,,,,,,,,,,,,,,,,,,,,,,07-09-2022,f442,2022-09-07_08h36.50.488,tareaTDv3,2020.2.5,Win32,60,,,left,0.0,1.1351,0.0,56.0,56.0,56.0,1.0,5000.0,0.0,35000.0,150.0
,,,,,,,,,,,,,,,,,,,,,,,07-09-2022,f442,2022-09-07_08h36.50.488,tareaTDv3,2020.2.5,Win32,60,,,left,1.0,0.8003,0.0,57.0,57.0,69.0,1.0,25000.0,0.0,150000.0,9.0
,,,,,,,,,,,,,,,,,,,,,,,07-09-2022,f442,2022-09-07_08h36.50.488,tareaTDv3,2020.2.5,Win32,60,,,left,1.0,1.0165,0.0,58.0,58.0,7.0,1.0,10000.0,0.0,59000.0,9.0
,,,,,,,,,,,,,,,,,,,,,,,07-09-2022,f442,2022-09-07_08h36.50.488,tareaTDv3,2020.2.5,Win32,60,,,left,1.0,3.3491,0.0,59.0,59.0,11.0,1.0,10000.0,0.0,39000.0,29.0
,,,,,,,,,,,,,,,,,,,,,,,07-09-2022,f442,2022-09-07_08h36.50.488,tareaTDv3,2020.2.5,Win32,60,,,right,0.0,0.6169,0.0,60.0,60.0,15.0,1.0,10000.0,0.0,20000.0,59.0
,,,,,,,,,,,,,,,,,,,,,,,07-09-2022,f442,2022-09-07_08h36.50.488,tareaTDv3,2020.2.5,Win32,60,,,right,0.0,0.8596,0.0,61.0,61.0,52.0,1.0,5000.0,0.0,56000.0,89.0
,,,,,,,,,,,,,,,,,,,,,,,07-09-2022,f442,2022-09-07_08h36.50.488,tareaTDv3,2020.2.5,Win32,60,,,right,1.0,1.0412,0.0,62.0,62.0,33.0,1.0,5000.0,0.0,104000.0,5.0
,,,,,,,,,,,,,,,,,,,,,,,07-09-2022,f442,2022-09-07_08h36.50.488,tareaTDv3,2020.2.5,Win32,60,,,right,0.0,0.692,0.0,63.0,63.0,58.0,1.0,5000.0,0.0,106000.0,152.0
,,,,,,,,,,,,,,,,,,,,,,,07-09-2022,f442,2022-09-07_08h36.50.488,tareaTDv3,2020.2.5,Win32,60,,,left,0.0,1.0018,0.0,64.0,64.0,85.0,1.0,25000.0,0.0,35000.0,150.0
,,,,,,,,,,,,,,,,,,,,,,,07-09-2022,f442,2022-09-07_08h36.50.488,tareaTDv3,2020.2.5,Win32,60,,,right,0.0,0.692,0.0,65.0,65.0,86.0,1.0,25000.0,0.0,55000.0,151.0
,,,,,,,,,,,,,,,,,,,,,,,07-09-2022,f442,2022-09-07_08h36.50.488,tareaTDv3,2020.2.5,Win32,60,,,left,0.0,3.2091,0.0,66.0,66.0,72.0,1.0,25000.0,0.0,75000.0,31.0
,,,,,,,,,,,,,,,,,,,,,,,07-09-2022,f442,2022-09-07_08h36.50.488,tareaTDv3,2020.2.5,Win32,60,,,left,0.0,8.157,0.0,67.0,67.0,60.0,1.0,25000.0,0.0,35000.0,5.0
,,,,,,,,,,,,,,,,,,,,,,,07-09-2022,f442,2022-09-07_08h36.50.488,tareaTDv3,2020.2.5,Win32,60,,,right,1.0,1.5315,0.0,68.0,68.0,8.0,1.0,10000.0,0.0,111000.0,10.0
,,,,,,,,,,,,,,,,,,,,,,,07-09-2022,f442,2022-09-07_08h36.50.488,tareaTDv3,2020.2.5,Win32,60,,,left,1.0,1.0954,0.0,69.0,69.0,38.0,1.0,5000.0,0.0,104000.0,10.0
,,,,,,,,,,,,,,,,,,,,,,,07-09-2022,f442,2022-09-07_08h36.50.488,tareaTDv3,2020.2.5,Win32,60,,,right,0.0,1.5064,0.0,70.0,70.0,13.0,1.0,10000.0,0.0,111000.0,30.0
,,,,,,,,,,,,,,,,,,,,,,,07-09-2022,f442,2022-09-07_08h36.50.488,tareaTDv3,2020.2.5,Win32,60,,,left,0.0,1.7365,0.0,71.0,71.0,27.0,1.0,10000.0,0.0,61000.0,150.0
,,,,,,,,,,,,,,,,,,,,,,,07-09-2022,f442,2022-09-07_08h36.50.488,tareaTDv3,2020.2.5,Win32,60,,,left,0.0,3.6829,0.0,72.0,72.0,23.0,1.0,10000.0,0.0,110000.0,90.0
,,,,,,,,,,,,,,,,,,,,,,,07-09-2022,f442,2022-09-07_08h36.50.488,tareaTDv3,2020.2.5,Win32,60,,,right,0.0,2.204,0.0,73.0,73.0,79.0,1.0,25000.0,0.0,150000.0,61.0
,,,,,,,,,,,,,,,,,,,,,,,07-09-2022,f442,2022-09-07_08h36.50.488,tareaTDv3,2020.2.5,Win32,60,,,right,1.0,1.7503,0.0,74.0,74.0,64.0,1.0,25000.0,0.0,150000.0,4.0
,,,,,,,,,,,,,,,,,,,,,,,07-09-2022,f442,2022-09-07_08h36.50.488,tareaTDv3,2020.2.5,Win32,60,,,right,0.0,1.3823,0.0,75.0,75.0,80.0,1.0,25000.0,0.0,35000.0,90.0
,,,,,,,,,,,,,,,,,,,,,,,07-09-2022,f442,2022-09-07_08h36.50.488,tareaTDv3,2020.2.5,Win32,60,,,right,0.0,2.3231,0.0,76.0,76.0,47.0,1.0,5000.0,0.0,56000.0,60.0
,,,,,,,,,,,,,,,,,,,,,,,07-09-2022,f442,2022-09-07_08h36.50.488,tareaTDv3,2020.2.5,Win32,60,,,left,0.0,1.5921,0.0,77.0,77.0,73.0,1.0,25000.0,0.0,125000.0,31.0
,,,,,,,,,,,,,,,,,,,,,,,07-09-2022,f442,2022-09-07_08h36.50.488,tareaTDv3,2020.2.5,Win32,60,,,right,1.0,16.4586,0.0,78.0,78.0,31.0,1.0,5000.0,0.0,35000.0,6.0
,,,,,,,,,,,,,,,,,,,,,,,07-09-2022,f442,2022-09-07_08h36.50.488,tareaTDv3,2020.2.5,Win32,60,,,right,0.0,3.8484,0.0,79.0,79.0,20.0,1.0,10000.0,0.0,20000.0,90.0
,,,,,,,,,,,,,,,,,,,,,,,07-09-2022,f442,2022-09-07_08h36.50.488,tareaTDv3,2020.2.5,Win32,60,,,right,0.0,0.8956,0.0,80.0,80.0,22.0,1.0,10000.0,0.0,61000.0,89.0
,,,,,,,,,,,,,,,,,,,,,,,07-09-2022,f442,2022-09-07_08h36.50.488,tareaTDv3,2020.2.5,Win32,60,,,right,1.0,0.8778,0.0,81.0,81.0,67.0,1.0,25000.0,0.0,75000.0,10.0
,,,,,,,,,,,,,,,,,,,,,,,07-09-2022,f442,2022-09-07_08h36.50.488,tareaTDv3,2020.2.5,Win32,60,,,left,1.0,1.0149,0.0,82.0,82.0,9.0,1.0,10000.0,0.0,151000.0,11.0
,,,,,,,,,,,,,,,,,,,,,,,07-09-2022,f442,2022-09-07_08h36.50.488,tareaTDv3,2020.2.5,Win32,60,,,right,1.0,1.29,0.0,83.0,83.0,62.0,1.0,25000.0,0.0,75000.0,5.0
,,,,,,,,,,,,,,,,,,,,,,,07-09-2022,f442,2022-09-07_08h36.50.488,tareaTDv3,2020.2.5,Win32,60,,,right,1.0,1.6663,0.0,84.0,84.0,41.0,1.0,5000.0,0.0,35000.0,31.0
,,,,,,,,,,,,,,,,,,,,,,,07-09-2022,f442,2022-09-07_08h36.50.488,tareaTDv3,2020.2.5,Win32,60,,,right,0.0,0.7996,0.0,85.0,85.0,46.0,1.0,5000.0,0.0,36000.0,61.0
,,,,,,,,,,,,,,,,,,,,,,,07-09-2022,f442,2022-09-07_08h36.50.488,tareaTDv3,2020.2.5,Win32,60,,,right,0.0,6.7067,0.0,86.0,86.0,50.0,1.0,5000.0,0.0,15000.0,91.0
,,,,,,,,,,,,,,,,,,,,,,,07-09-2022,f442,2022-09-07_08h36.50.488,tareaTDv3,2020.2.5,Win32,60,,,left,1.0,5.5303,0.0,87.0,87.0,37.0,1.0,5000.0,0.0,56000.0,9.0
,,,,,,,,,,,,,,,,,,,,,,,07-09-2022,f442,2022-09-07_08h36.50.488,tareaTDv3,2020.2.5,Win32,60,,,left,0.0,1.5012,0.0,88.0,88.0,29.0,1.0,10000.0,0.0,151000.0,151.0
,,,,,,,,,,,,,,,,,,,,,,,07-09-2022,f442,2022-09-07_08h36.50.488,tareaTDv3,2020.2.5,Win32,60,,,left,1.0,1.2781,0.0,89.0,89.0,34.0,1.0,5000.0,0.0,151000.0,4.0
