key1.keys,key1.rt,key2.keys,key2.rt,key2_2.keys,key2_2.rt,key2_3.keys,key2_3.rt,key3.keys,key3.rt,key4.keys,key4.rt,respP.keys,respP.corr,respP.rt,Practice.thisRepN,Practice.thisTrialN,Practice.thisN,Practice.thisIndex,Practice.ran,ssAmount,llAmount,llDelay,session,participant,date,expName,psychopyVersion,OS,frameRate,key5.keys,key5.rt,respT.keys,respT.corr,trials.thisRepN,trials.thisTrialN,trials.thisN,trials.thisIndex,trials.ran,ss_am,ss_del,ll_am,ll_del,respT.rt
space,26.8273,space,18.4589,space,10.5662,space,4.3432,right,19.7805,space,3.3512,right,1.0,12.3732,0.0,0.0,0.0,0.0,1.0,10000.0,109000.0,9.0,07-09-2022,F448,2022-09-07_08h48.03.298,tareaTDv3,2020.2.5,Win32,60,,,,,,,,,,,,,,
,,,,,,,,,,,,right,0.0,7.5323,0.0,1.0,1.0,1.0,1.0,25000.0,35000.0,150.0,07-09-2022,F448,2022-09-07_08h48.03.298,tareaTDv3,2020.2.5,Win32,60,,,,,,,,,,,,,,
,,,,,,,,,,,,left,0.0,7.932,0.0,2.0,2.0,2.0,1.0,10000.0,19000.0,89.0,07-09-2022,F448,2022-09-07_08h48.03.298,tareaTDv3,2020.2.5,Win32,60,,,,,,,,,,,,,,
,,,,,,,,,,,,,,,,,,,,,,,07-09-2022,F448,2022-09-07_08h48.03.298,tareaTDv3,2020.2.5,Win32,60,g,4.6155,,0.0,0.0,0.0,0.0,46.0,1.0,5000.0,0.0,36000.0,61.0,
,,,,,,,,,,,,,,,,,,,,,,,07-09-2022,F448,2022-09-07_08h48.03.298,tareaTDv3,2020.2.5,Win32,60,,,left,1.0,0.0,1.0,1.0,63.0,1.0,25000.0,0.0,125000.0,4.0,3.3365
,,,,,,,,,,,,,,,,,,,,,,,07-09-2022,F448,2022-09-07_08h48.03.298,tareaTDv3,2020.2.5,Win32,60,,,right,0.0,0.0,2.0,2.0,20.0,1.0,10000.0,0.0,20000.0,90.0,3.0892
,,,,,,,,,,,,,,,,,,,,,,,07-09-2022,F448,2022-09-07_08h48.03.298,tareaTDv3,2020.2.5,Win32,60,,,right,1.0,0.0,3.0,3.0,60.0,1.0,25000.0,0.0,35000.0,5.0,5.6161
,,,,,,,,,,,,,,,,,,,,,,,07-09-2022,F448,2022-09-07_08h48.03.298,tareaTDv3,2020.2.5,Win32,60,,,right,1.0,0.0,4.0,4.0,4.0,1.0,10000.0,0.0,150000.0,5.0,2.7624
,,,,,,,,,,,,,,,,,,,,,,,07-09-2022,F448,2022-09-07_08h48.03.298,tareaTDv3,2020.2.5,Win32,60,,,right,1.0,0.0,5.0,5.0,24.0,1.0,10000.0,0.0,149000.0,89.0,5.3355
,,,,,,,,,,,,,,,,,,,,,,,07-09-2022,F448,2022-09-07_08h48.03.298,tareaTDv3,2020.2.5,Win32,60,,,left,1.0,0.0,6.0,6.0,33.0,1.0,5000.0,0.0,104000.0,5.0,4.1264
,,,,,,,,,,,,,,,,,,,,,,,07-09-2022,F448,2022-09-07_08h48.03.298,tareaTDv3,2020.2.5,Win32,60,,,left,1.0,0.0,7.0,7.0,41.0,1.0,5000.0,0.0,35000.0,31.0,2.6648
,,,,,,,,,,,,,,,,,,,,,,,07-09-2022,F448,2022-09-07_08h48.03.298,tareaTDv3,2020.2.5,Win32,60,,,right,0.0,0.0,8.0,8.0,56.0,1.0,5000.0,0.0,35000.0,150.0,2.5357
,,,,,,,,,,,,,,,,,,,,,,,07-09-2022,F448,2022-09-07_08h48.03.298,tareaTDv3,2020.2.5,Win32,60,,,right,0.0,0.0,9.0,9.0,77.0,1.0,25000.0,0.0,75000.0,59.0,6.6476
,,,,,,,,,,,,,,,,,,,,,,,07-09-2022,F448,2022-09-07_08h48.03.298,tareaTDv3,2020.2.5,Win32,60,,,right,1.0,0.0,10.0,10.0,76.0,1.0,25000.0,0.0,55000.0,60.0,3.8297
,,,,,,,,,,,,,,,,,,,,,,,07-09-2022,F448,2022-09-07_08h48.03.298,tareaTDv3,2020.2.5,Win32,60,,,right,1.0,0.0,11.0,11.0,34.0,1.0,5000.0,0.0,151000.0,4.0,0.9875
,,,,,,,,,,,,,,,,,,,,,,,07-09-2022,F448,2022-09-07_08h48.03.298,tareaTDv3,2020.2.5,Win32,60,,,right,0.0,0.0,12.0,12.0,80.0,1.0,25000.0,0.0,35000.0,90.0,1.6374
,,,,,,,,,,,,,,,,,,,,,,,07-09-2022,F448,2022-09-07_08h48.03.298,tareaTDv3,2020.2.5,Win32,60,,,left,1.0,0.0,13.0,13.0,48.0,1.0,5000.0,0.0,105000.0,60.0,1.7274
,,,,,,,,,,,,,,,,,,,,,,,07-09-2022,F448,2022-09-07_08h48.03.298,tareaTDv3,2020.2.5,Win32,60,,,left,1.0,0.0,14.0,14.0,67.0,1.0,25000.0,0.0,75000.0,10.0,3.941
,,,,,,,,,,,,,,,,,,,,,,,07-09-2022,F448,2022-09-07_08h48.03.298,tareaTDv3,2020.2.5,Win32,60,,,right,1.0,0.0,15.0,15.0,59.0,1.0,5000.0,0.0,151000.0,150.0,6.7138
,,,,,,,,,,,,,,,,,,,,,,,07-09-2022,F448,2022-09-07_08h48.03.298,tareaTDv3,2020.2.5,Win32,60,,,left,0.0,0.0,16.0,16.0,15.0,1.0,10000.0,0.0,20000.0,59.0,4.3887
,,,,,,,,,,,,,,,,,,,,,,,07-09-2022,F448,2022-09-07_08h48.03.298,tareaTDv3,2020.2.5,Win32,60,,,left,1.0,0.0,17.0,17.0,19.0,1.0,10000.0,0.0,149000.0,61.0,1.3526
,,,,,,,,,,,,,,,,,,,,,,,07-09-2022,F448,2022-09-07_08h48.03.298,tareaTDv3,2020.2.5,Win32,60,,,right,1.0,0.0,18.0,18.0,3.0,1.0,10000.0,0.0,109000.0,5.0,2.8006
,,,,,,,,,,,,,,,,,,,,,,,07-09-2022,F448,2022-09-07_08h48.03.298,tareaTDv3,2020.2.5,Win32,60,,,right,1.0,0.0,19.0,19.0,51.0,1.0,5000.0,0.0,35000.0,89.0,0.9417
,,,,,,,,,,,,,,,,,,,,,,,07-09-2022,F448,2022-09-07_08h48.03.298,tareaTDv3,2020.2.5,Win32,60,,,right,1.0,0.0,20.0,20.0,47.0,1.0,5000.0,0.0,56000.0,60.0,1.3385
,,,,,,,,,,,,,,,,,,,,,,,07-09-2022,F448,2022-09-07_08h48.03.298,tareaTDv3,2020.2.5,Win32,60,,,right,1.0,0.0,21.0,21.0,89.0,1.0,25000.0,0.0,150000.0,150.0,2.9924
,,,,,,,,,,,,,,,,,,,,,,,07-09-2022,F448,2022-09-07_08h48.03.298,tareaTDv3,2020.2.5,Win32,60,,,left,1.0,0.0,22.0,22.0,65.0,1.0,25000.0,0.0,35000.0,11.0,2.6232
,,,,,,,,,,,,,,,,,,,,,,,07-09-2022,F448,2022-09-07_08h48.03.298,tareaTDv3,2020.2.5,Win32,60,,,right,1.0,0.0,23.0,23.0,28.0,1.0,10000.0,0.0,109000.0,149.0,3.6656
,,,,,,,,,,,,,,,,,,,,,,,07-09-2022,F448,2022-09-07_08h48.03.298,tareaTDv3,2020.2.5,Win32,60,,,left,0.0,0.0,24.0,24.0,57.0,1.0,5000.0,0.0,55000.0,151.0,3.0573
,,,,,,,,,,,,,,,,,,,,,,,07-09-2022,F448,2022-09-07_08h48.03.298,tareaTDv3,2020.2.5,Win32,60,,,right,1.0,0.0,25.0,25.0,9.0,1.0,10000.0,0.0,151000.0,11.0,1.4913
,,,,,,,,,,,,,,,,,,,,,,,07-09-2022,F448,2022-09-07_08h48.03.298,tareaTDv3,2020.2.5,Win32,60,,,right,1.0,0.0,26.0,26.0,49.0,1.0,5000.0,0.0,149000.0,59.0,1.4657
,,,,,,,,,,,,,,,,,,,,,,,07-09-2022,F448,2022-09-07_08h48.03.298,tareaTDv3,2020.2.5,Win32,60,,,right,1.0,0.0,27.0,27.0,23.0,1.0,10000.0,0.0,110000.0,90.0,0.9868
,,,,,,,,,,,,,,,,,,,,,,,07-09-2022,F448,2022-09-07_08h48.03.298,tareaTDv3,2020.2.5,Win32,60,,,right,1.0,0.0,28.0,28.0,18.0,1.0,10000.0,0.0,110000.0,60.0,0.8562
,,,,,,,,,,,,,,,,,,,,,,,07-09-2022,F448,2022-09-07_08h48.03.298,tareaTDv3,2020.2.5,Win32,60,,,left,0.0,0.0,29.0,29.0,25.0,1.0,10000.0,0.0,10000.0,150.0,3.9973
,,,,,,,,,,,,,,,,,,,,,,,07-09-2022,F448,2022-09-07_08h48.03.298,tareaTDv3,2020.2.5,Win32,60,,,left,0.0,0.0,30.0,30.0,50.0,1.0,5000.0,0.0,15000.0,91.0,3.1507
,,,,,,,,,,,,,,,,,,,,,,,07-09-2022,F448,2022-09-07_08h48.03.298,tareaTDv3,2020.2.5,Win32,60,,,right,1.0,0.0,31.0,31.0,68.0,1.0,25000.0,0.0,125000.0,9.0,0.9127
,,,,,,,,,,,,,,,,,,,,,,,07-09-2022,F448,2022-09-07_08h48.03.298,tareaTDv3,2020.2.5,Win32,60,,,right,1.0,0.0,32.0,32.0,39.0,1.0,5000.0,0.0,149000.0,10.0,0.7909
,,,,,,,,,,,,,,,,,,,,,,,07-09-2022,F448,2022-09-07_08h48.03.298,tareaTDv3,2020.2.5,Win32,60,,,left,1.0,0.0,33.0,33.0,53.0,1.0,5000.0,0.0,104000.0,90.0,1.0578
,,,,,,,,,,,,,,,,,,,,,,,07-09-2022,F448,2022-09-07_08h48.03.298,tareaTDv3,2020.2.5,Win32,60,,,left,0.0,0.0,34.0,34.0,55.0,1.0,5000.0,0.0,14000.0,149.0,1.5002
,,,,,,,,,,,,,,,,,,,,,,,07-09-2022,F448,2022-09-07_08h48.03.298,tareaTDv3,2020.2.5,Win32,60,,,right,0.0,0.0,35.0,35.0,71.0,1.0,25000.0,0.0,55000.0,30.0,1.5193
,,,,,,,,,,,,,,,,,,,,,,,07-09-2022,F448,2022-09-07_08h48.03.298,tareaTDv3,2020.2.5,Win32,60,,,right,1.0,0.0,36.0,36.0,30.0,1.0,5000.0,0.0,16000.0,4.0,0.6846
,,,,,,,,,,,,,,,,,,,,,,,07-09-2022,F448,2022-09-07_08h48.03.298,tareaTDv3,2020.2.5,Win32,60,,,left,1.0,0.0,37.0,37.0,79.0,1.0,25000.0,0.0,150000.0,61.0,1.168
,,,,,,,,,,,,,,,,,,,,,,,07-09-2022,F448,2022-09-07_08h48.03.298,tareaTDv3,2020.2.5,Win32,60,,,left,1.0,0.0,38.0,38.0,72.0,1.0,25000.0,0.0,75000.0,31.0,3.6231
,,,,,,,,,,,,,,,,,,,,,,,07-09-2022,F448,2022-09-07_08h48.03.298,tareaTDv3,2020.2.5,Win32,60,,,right,1.0,0.0,39.0,39.0,82.0,1.0,25000.0,0.0,75000.0,90.0,0.7554
,,,,,,,,,,,,,,,,,,,,,,,07-09-2022,F448,2022-09-07_08h48.03.298,tareaTDv3,2020.2.5,Win32,60,,,left,1.0,0.0,40.0,40.0,44.0,1.0,5000.0,0.0,150000.0,30.0,1.1171
,,,,,,,,,,,,,,,,,,,,,,,07-09-2022,F448,2022-09-07_08h48.03.298,tareaTDv3,2020.2.5,Win32,60,,,right,1.0,0.0,41.0,41.0,31.0,1.0,5000.0,0.0,35000.0,6.0,0.7309
,,,,,,,,,,,,,,,,,,,,,,,07-09-2022,F448,2022-09-07_08h48.03.298,tareaTDv3,2020.2.5,Win32,60,,,right,1.0,0.0,42.0,42.0,2.0,1.0,10000.0,0.0,61000.0,4.0,0.5793
,,,,,,,,,,,,,,,,,,,,,,,07-09-2022,F448,2022-09-07_08h48.03.298,tareaTDv3,2020.2.5,Win32,60,,,right,1.0,0.0,43.0,43.0,38.0,1.0,5000.0,0.0,104000.0,10.0,0.4018
,,,,,,,,,,,,,,,,,,,,,,,07-09-2022,F448,2022-09-07_08h48.03.298,tareaTDv3,2020.2.5,Win32,60,,,left,1.0,0.0,44.0,44.0,85.0,1.0,25000.0,0.0,35000.0,150.0,0.5635
,,,,,,,,,,,,,,,,,,,,,,,07-09-2022,F448,2022-09-07_08h48.03.298,tareaTDv3,2020.2.5,Win32,60,,,right,1.0,0.0,45.0,45.0,14.0,1.0,10000.0,0.0,150000.0,30.0,1.299
,,,,,,,,,,,,,,,,,,,,,,,07-09-2022,F448,2022-09-07_08h48.03.298,tareaTDv3,2020.2.5,Win32,60,,,left,1.0,0.0,46.0,46.0,78.0,1.0,25000.0,0.0,125000.0,59.0,0.9216
,,,,,,,,,,,,,,,,,,,,,,,07-09-2022,F448,2022-09-07_08h48.03.298,tareaTDv3,2020.2.5,Win32,60,,,left,0.0,0.0,47.0,47.0,61.0,1.0,25000.0,0.0,55000.0,6.0,1.9967
,,,,,,,,,,,,,,,,,,,,,,,07-09-2022,F448,2022-09-07_08h48.03.298,tareaTDv3,2020.2.5,Win32,60,,,right,1.0,0.0,48.0,48.0,40.0,1.0,5000.0,0.0,14000.0,31.0,1.3691
,,,,,,,,,,,,,,,,,,,,,,,07-09-2022,F448,2022-09-07_08h48.03.298,tareaTDv3,2020.2.5,Win32,60,,,right,0.0,0.0,49.0,49.0,27.0,1.0,10000.0,0.0,61000.0,150.0,4.4893
,,,,,,,,,,,,,,,,,,,,,,,07-09-2022,F448,2022-09-07_08h48.03.298,tareaTDv3,2020.2.5,Win32,60,,,left,1.0,0.0,50.0,50.0,36.0,1.0,5000.0,0.0,36000.0,9.0,1.2732
,,,,,,,,,,,,,,,,,,,,,,,07-09-2022,F448,2022-09-07_08h48.03.298,tareaTDv3,2020.2.5,Win32,60,,,right,1.0,0.0,51.0,51.0,74.0,1.0,25000.0,0.0,150000.0,29.0,0.9603
,,,,,,,,,,,,,,,,,,,,,,,07-09-2022,F448,2022-09-07_08h48.03.298,tareaTDv3,2020.2.5,Win32,60,,,left,1.0,0.0,52.0,52.0,37.0,1.0,5000.0,0.0,56000.0,9.0,2.1982
,,,,,,,,,,,,,,,,,,,,,,,07-09-2022,F448,2022-09-07_08h48.03.298,tareaTDv3,2020.2.5,Win32,60,,,left,1.0,0.0,53.0,53.0,13.0,1.0,10000.0,0.0,111000.0,30.0,0.7495
,,,,,,,,,,,,,,,,,,,,,,,07-09-2022,F448,2022-09-07_08h48.03.298,tareaTDv3,2020.2.5,Win32,60,,,right,1.0,0.0,54.0,54.0,29.0,1.0,10000.0,0.0,151000.0,151.0,0.5795
,,,,,,,,,,,,,,,,,,,,,,,07-09-2022,F448,2022-09-07_08h48.03.298,tareaTDv3,2020.2.5,Win32,60,,,right,1.0,0.0,55.0,55.0,7.0,1.0,10000.0,0.0,59000.0,9.0,1.4457
,,,,,,,,,,,,,,,,,,,,,,,07-09-2022,F448,2022-09-07_08h48.03.298,tareaTDv3,2020.2.5,Win32,60,,,left,1.0,0.0,56.0,56.0,11.0,1.0,10000.0,0.0,39000.0,29.0,0.4011
,,,,,,,,,,,,,,,,,,,,,,,07-09-2022,F448,2022-09-07_08h48.03.298,tareaTDv3,2020.2.5,Win32,60,,,left,1.0,0.0,57.0,57.0,6.0,1.0,10000.0,0.0,40000.0,10.0,0.4028
,,,,,,,,,,,,,,,,,,,,,,,07-09-2022,F448,2022-09-07_08h48.03.298,tareaTDv3,2020.2.5,Win32,60,,,right,1.0,0.0,58.0,58.0,35.0,1.0,5000.0,0.0,15000.0,11.0,0.2869
,,,,,,,,,,,,,,,,,,,,,,,07-09-2022,F448,2022-09-07_08h48.03.298,tareaTDv3,2020.2.5,Win32,60,,,right,1.0,0.0,59.0,59.0,84.0,1.0,25000.0,0.0,150000.0,89.0,1.0948
,,,,,,,,,,,,,,,,,,,,,,,07-09-2022,F448,2022-09-07_08h48.03.298,tareaTDv3,2020.2.5,Win32,60,,,left,1.0,0.0,60.0,60.0,83.0,1.0,25000.0,0.0,125000.0,89.0,1.5139
,,,,,,,,,,,,,,,,,,,,,,,07-09-2022,F448,2022-09-07_08h48.03.298,tareaTDv3,2020.2.5,Win32,60,,,left,1.0,0.0,61.0,61.0,54.0,1.0,5000.0,0.0,150000.0,90.0,1.3852
,,,,,,,,,,,,,,,,,,,,,,,07-09-2022,F448,2022-09-07_08h48.03.298,tareaTDv3,2020.2.5,Win32,60,,,right,1.0,0.0,62.0,62.0,62.0,1.0,25000.0,0.0,75000.0,5.0,1.3042
,,,,,,,,,,,,,,,,,,,,,,,07-09-2022,F448,2022-09-07_08h48.03.298,tareaTDv3,2020.2.5,Win32,60,,,right,0.0,0.0,63.0,63.0,88.0,1.0,25000.0,0.0,125000.0,149.0,1.3899
,,,,,,,,,,,,,,,,,,,,,,,07-09-2022,F448,2022-09-07_08h48.03.298,tareaTDv3,2020.2.5,Win32,60,,,right,1.0,0.0,64.0,64.0,21.0,1.0,10000.0,0.0,40000.0,91.0,0.9999
,,,,,,,,,,,,,,,,,,,,,,,07-09-2022,F448,2022-09-07_08h48.03.298,tareaTDv3,2020.2.5,Win32,60,,,left,0.0,0.0,65.0,65.0,87.0,1.0,25000.0,0.0,75000.0,151.0,0.9542
,,,,,,,,,,,,,,,,,,,,,,,07-09-2022,F448,2022-09-07_08h48.03.298,tareaTDv3,2020.2.5,Win32,60,,,right,0.0,0.0,66.0,66.0,70.0,1.0,25000.0,0.0,35000.0,30.0,1.1917
,,,,,,,,,,,,,,,,,,,,,,,07-09-2022,F448,2022-09-07_08h48.03.298,tareaTDv3,2020.2.5,Win32,60,,,right,0.0,0.0,67.0,67.0,10.0,1.0,10000.0,0.0,21000.0,31.0,0.9023
,,,,,,,,,,,,,,,,,,,,,,,07-09-2022,F448,2022-09-07_08h48.03.298,tareaTDv3,2020.2.5,Win32,60,,,left,1.0,0.0,68.0,68.0,22.0,1.0,10000.0,0.0,61000.0,89.0,2.6536
,,,,,,,,,,,,,,,,,,,,,,,07-09-2022,F448,2022-09-07_08h48.03.298,tareaTDv3,2020.2.5,Win32,60,,,right,1.0,0.0,69.0,69.0,58.0,1.0,5000.0,0.0,106000.0,152.0,1.8869
,,,,,,,,,,,,,,,,,,,,,,,07-09-2022,F448,2022-09-07_08h48.03.298,tareaTDv3,2020.2.5,Win32,60,,,left,1.0,0.0,70.0,70.0,8.0,1.0,10000.0,0.0,111000.0,10.0,2.1575
,,,,,,,,,,,,,,,,,,,,,,,07-09-2022,F448,2022-09-07_08h48.03.298,tareaTDv3,2020.2.5,Win32,60,,,right,1.0,0.0,71.0,71.0,66.0,1.0,25000.0,0.0,55000.0,11.0,1.2889
,,,,,,,,,,,,,,,,,,,,,,,07-09-2022,F448,2022-09-07_08h48.03.298,tareaTDv3,2020.2.5,Win32,60,,,left,1.0,0.0,72.0,72.0,52.0,1.0,5000.0,0.0,56000.0,89.0,2.7479
,,,,,,,,,,,,,,,,,,,,,,,07-09-2022,F448,2022-09-07_08h48.03.298,tareaTDv3,2020.2.5,Win32,60,,,left,1.0,0.0,73.0,73.0,26.0,1.0,10000.0,0.0,39000.0,150.0,2.3351
,,,,,,,,,,,,,,,,,,,,,,,07-09-2022,F448,2022-09-07_08h48.03.298,tareaTDv3,2020.2.5,Win32,60,,,left,1.0,0.0,74.0,74.0,5.0,1.0,10000.0,0.0,19000.0,11.0,2.0683
,,,,,,,,,,,,,,,,,,,,,,,07-09-2022,F448,2022-09-07_08h48.03.298,tareaTDv3,2020.2.5,Win32,60,,,left,0.0,0.0,75.0,75.0,86.0,1.0,25000.0,0.0,55000.0,151.0,3.4988
,,,,,,,,,,,,,,,,,,,,,,,07-09-2022,F448,2022-09-07_08h48.03.298,tareaTDv3,2020.2.5,Win32,60,,,right,0.0,0.0,76.0,76.0,75.0,1.0,25000.0,0.0,35000.0,60.0,1.3278
,,,,,,,,,,,,,,,,,,,,,,,07-09-2022,F448,2022-09-07_08h48.03.298,tareaTDv3,2020.2.5,Win32,60,,,right,1.0,0.0,77.0,77.0,12.0,1.0,10000.0,0.0,60000.0,29.0,1.9913
,,,,,,,,,,,,,,,,,,,,,,,07-09-2022,F448,2022-09-07_08h48.03.298,tareaTDv3,2020.2.5,Win32,60,,,right,1.0,0.0,78.0,78.0,1.0,1.0,10000.0,0.0,39000.0,6.0,3.5235
,,,,,,,,,,,,,,,,,,,,,,,07-09-2022,F448,2022-09-07_08h48.03.298,tareaTDv3,2020.2.5,Win32,60,,,left,1.0,0.0,79.0,79.0,43.0,1.0,5000.0,0.0,106000.0,29.0,1.3547
,,,,,,,,,,,,,,,,,,,,,,,07-09-2022,F448,2022-09-07_08h48.03.298,tareaTDv3,2020.2.5,Win32,60,,,right,1.0,0.0,80.0,80.0,73.0,1.0,25000.0,0.0,125000.0,31.0,0.5703
,,,,,,,,,,,,,,,,,,,,,,,07-09-2022,F448,2022-09-07_08h48.03.298,tareaTDv3,2020.2.5,Win32,60,,,left,1.0,0.0,81.0,81.0,45.0,1.0,5000.0,0.0,15000.0,61.0,1.1228
,,,,,,,,,,,,,,,,,,,,,,,07-09-2022,F448,2022-09-07_08h48.03.298,tareaTDv3,2020.2.5,Win32,60,,,left,1.0,0.0,82.0,82.0,64.0,1.0,25000.0,0.0,150000.0,4.0,3.605
,,,,,,,,,,,,,,,,,,,,,,,07-09-2022,F448,2022-09-07_08h48.03.298,tareaTDv3,2020.2.5,Win32,60,,,right,0.0,0.0,83.0,83.0,81.0,1.0,25000.0,0.0,55000.0,90.0,2.3021
,,,,,,,,,,,,,,,,,,,,,,,07-09-2022,F448,2022-09-07_08h48.03.298,tareaTDv3,2020.2.5,Win32,60,,,right,1.0,0.0,84.0,84.0,0.0,1.0,10000.0,0.0,20000.0,5.0,0.6609
,,,,,,,,,,,,,,,,,,,,,,,07-09-2022,F448,2022-09-07_08h48.03.298,tareaTDv3,2020.2.5,Win32,60,,,right,0.0,0.0,85.0,85.0,16.0,1.0,10000.0,0.0,39000.0,59.0,1.5037
,,,,,,,,,,,,,,,,,,,,,,,07-09-2022,F448,2022-09-07_08h48.03.298,tareaTDv3,2020.2.5,Win32,60,,,right,1.0,0.0,86.0,86.0,32.0,1.0,5000.0,0.0,54000.0,5.0,1.6152
,,,,,,,,,,,,,,,,,,,,,,,07-09-2022,F448,2022-09-07_08h48.03.298,tareaTDv3,2020.2.5,Win32,60,,,left,1.0,0.0,87.0,87.0,17.0,1.0,10000.0,0.0,60000.0,60.0,1.5666
,,,,,,,,,,,,,,,,,,,,,,,07-09-2022,F448,2022-09-07_08h48.03.298,tareaTDv3,2020.2.5,Win32,60,,,right,1.0,0.0,88.0,88.0,42.0,1.0,5000.0,0.0,56000.0,29.0,4.7248
,,,,,,,,,,,,,,,,,,,,,,,07-09-2022,F448,2022-09-07_08h48.03.298,tareaTDv3,2020.2.5,Win32,60,,,right,1.0,0.0,89.0,89.0,69.0,1.0,25000.0,0.0,150000.0,9.0,1.1693
