key1.keys,key1.rt,key2.keys,key2.rt,key2_2.keys,key2_2.rt,key2_3.keys,key2_3.rt,key3.keys,key3.rt,key4.keys,key4.rt,respP.keys,respP.corr,respP.rt,Practice.thisRepN,Practice.thisTrialN,Practice.thisN,Practice.thisIndex,Practice.ran,ssAmount,llAmount,llDelay,session,participant,date,expName,psychopyVersion,OS,frameRate,key5.keys,key5.rt,respT.keys,respT.corr,respT.rt,trials.thisRepN,trials.thisTrialN,trials.thisN,trials.thisIndex,trials.ran,ss_am,ss_del,ll_am,ll_del
space,4.8956,space,50.2812,space,4.6482,space,1.5392,left,3.8591,space,1.7982,right,1.0,3.0905,0.0,0.0,0.0,0.0,1.0,10000.0,109000.0,9.0,07-09-2022,F460,2022-09-07_08h50.06.803,tareaTDv3,2020.2.5,Win32,60,,,,,,,,,,,,,,
,,,,,,,,,,,,right,0.0,3.1181,0.0,1.0,1.0,2.0,1.0,10000.0,19000.0,89.0,07-09-2022,F460,2022-09-07_08h50.06.803,tareaTDv3,2020.2.5,Win32,60,,,,,,,,,,,,,,
,,,,,,,,,,,,left,0.0,3.192,0.0,2.0,2.0,1.0,1.0,25000.0,35000.0,150.0,07-09-2022,F460,2022-09-07_08h50.06.803,tareaTDv3,2020.2.5,Win32,60,,,,,,,,,,,,,,
,,,,,,,,,,,,,,,,,,,,,,,07-09-2022,F460,2022-09-07_08h50.06.803,tareaTDv3,2020.2.5,Win32,60,g,4.9876,left,0.0,4.3854,0.0,0.0,0.0,17.0,1.0,10000.0,0.0,60000.0,60.0
,,,,,,,,,,,,,,,,,,,,,,,07-09-2022,F460,2022-09-07_08h50.06.803,tareaTDv3,2020.2.5,Win32,60,,,right,0.0,2.7395,0.0,1.0,1.0,65.0,1.0,25000.0,0.0,35000.0,11.0
,,,,,,,,,,,,,,,,,,,,,,,07-09-2022,F460,2022-09-07_08h50.06.803,tareaTDv3,2020.2.5,Win32,60,,,right,0.0,2.3128,0.0,2.0,2.0,26.0,1.0,10000.0,0.0,39000.0,150.0
,,,,,,,,,,,,,,,,,,,,,,,07-09-2022,F460,2022-09-07_08h50.06.803,tareaTDv3,2020.2.5,Win32,60,,,right,0.0,2.5047,0.0,3.0,3.0,75.0,1.0,25000.0,0.0,35000.0,60.0
,,,,,,,,,,,,,,,,,,,,,,,07-09-2022,F460,2022-09-07_08h50.06.803,tareaTDv3,2020.2.5,Win32,60,,,right,1.0,2.9307,0.0,4.0,4.0,34.0,1.0,5000.0,0.0,151000.0,4.0
,,,,,,,,,,,,,,,,,,,,,,,07-09-2022,F460,2022-09-07_08h50.06.803,tareaTDv3,2020.2.5,Win32,60,,,right,0.0,2.9853,0.0,5.0,5.0,10.0,1.0,10000.0,0.0,21000.0,31.0
,,,,,,,,,,,,,,,,,,,,,,,07-09-2022,F460,2022-09-07_08h50.06.803,tareaTDv3,2020.2.5,Win32,60,,,left,1.0,2.2817,0.0,6.0,6.0,62.0,1.0,25000.0,0.0,75000.0,5.0
,,,,,,,,,,,,,,,,,,,,,,,07-09-2022,F460,2022-09-07_08h50.06.803,tareaTDv3,2020.2.5,Win32,60,,,right,0.0,6.9572,0.0,7.0,7.0,52.0,1.0,5000.0,0.0,56000.0,89.0
,,,,,,,,,,,,,,,,,,,,,,,07-09-2022,F460,2022-09-07_08h50.06.803,tareaTDv3,2020.2.5,Win32,60,,,right,0.0,2.9252,0.0,8.0,8.0,6.0,1.0,10000.0,0.0,40000.0,10.0
,,,,,,,,,,,,,,,,,,,,,,,07-09-2022,F460,2022-09-07_08h50.06.803,tareaTDv3,2020.2.5,Win32,60,,,left,0.0,1.899,0.0,9.0,9.0,21.0,1.0,10000.0,0.0,40000.0,91.0
,,,,,,,,,,,,,,,,,,,,,,,07-09-2022,F460,2022-09-07_08h50.06.803,tareaTDv3,2020.2.5,Win32,60,,,left,0.0,2.1909,0.0,10.0,10.0,57.0,1.0,5000.0,0.0,55000.0,151.0
,,,,,,,,,,,,,,,,,,,,,,,07-09-2022,F460,2022-09-07_08h50.06.803,tareaTDv3,2020.2.5,Win32,60,,,right,0.0,1.493,0.0,11.0,11.0,51.0,1.0,5000.0,0.0,35000.0,89.0
,,,,,,,,,,,,,,,,,,,,,,,07-09-2022,F460,2022-09-07_08h50.06.803,tareaTDv3,2020.2.5,Win32,60,,,left,0.0,2.4445,0.0,12.0,12.0,22.0,1.0,10000.0,0.0,61000.0,89.0
,,,,,,,,,,,,,,,,,,,,,,,07-09-2022,F460,2022-09-07_08h50.06.803,tareaTDv3,2020.2.5,Win32,60,,,left,1.0,2.0184,0.0,13.0,13.0,43.0,1.0,5000.0,0.0,106000.0,29.0
,,,,,,,,,,,,,,,,,,,,,,,07-09-2022,F460,2022-09-07_08h50.06.803,tareaTDv3,2020.2.5,Win32,60,,,left,0.0,1.8908,0.0,14.0,14.0,88.0,1.0,25000.0,0.0,125000.0,149.0
,,,,,,,,,,,,,,,,,,,,,,,07-09-2022,F460,2022-09-07_08h50.06.803,tareaTDv3,2020.2.5,Win32,60,,,right,0.0,2.1939,0.0,15.0,15.0,83.0,1.0,25000.0,0.0,125000.0,89.0
,,,,,,,,,,,,,,,,,,,,,,,07-09-2022,F460,2022-09-07_08h50.06.803,tareaTDv3,2020.2.5,Win32,60,,,left,0.0,1.821,0.0,16.0,16.0,47.0,1.0,5000.0,0.0,56000.0,60.0
,,,,,,,,,,,,,,,,,,,,,,,07-09-2022,F460,2022-09-07_08h50.06.803,tareaTDv3,2020.2.5,Win32,60,,,right,1.0,2.7345,0.0,17.0,17.0,60.0,1.0,25000.0,0.0,35000.0,5.0
,,,,,,,,,,,,,,,,,,,,,,,07-09-2022,F460,2022-09-07_08h50.06.803,tareaTDv3,2020.2.5,Win32,60,,,left,0.0,1.4089,0.0,18.0,18.0,55.0,1.0,5000.0,0.0,14000.0,149.0
,,,,,,,,,,,,,,,,,,,,,,,07-09-2022,F460,2022-09-07_08h50.06.803,tareaTDv3,2020.2.5,Win32,60,,,right,0.0,1.1093,0.0,19.0,19.0,19.0,1.0,10000.0,0.0,149000.0,61.0
,,,,,,,,,,,,,,,,,,,,,,,07-09-2022,F460,2022-09-07_08h50.06.803,tareaTDv3,2020.2.5,Win32,60,,,right,1.0,3.2419,0.0,20.0,20.0,33.0,1.0,5000.0,0.0,104000.0,5.0
,,,,,,,,,,,,,,,,,,,,,,,07-09-2022,F460,2022-09-07_08h50.06.803,tareaTDv3,2020.2.5,Win32,60,,,right,0.0,2.4626,0.0,21.0,21.0,27.0,1.0,10000.0,0.0,61000.0,150.0
,,,,,,,,,,,,,,,,,,,,,,,07-09-2022,F460,2022-09-07_08h50.06.803,tareaTDv3,2020.2.5,Win32,60,,,right,0.0,2.6071,0.0,22.0,22.0,50.0,1.0,5000.0,0.0,15000.0,91.0
,,,,,,,,,,,,,,,,,,,,,,,07-09-2022,F460,2022-09-07_08h50.06.803,tareaTDv3,2020.2.5,Win32,60,,,right,1.0,1.0924,0.0,23.0,23.0,31.0,1.0,5000.0,0.0,35000.0,6.0
,,,,,,,,,,,,,,,,,,,,,,,07-09-2022,F460,2022-09-07_08h50.06.803,tareaTDv3,2020.2.5,Win32,60,,,right,0.0,1.7067,0.0,24.0,24.0,70.0,1.0,25000.0,0.0,35000.0,30.0
,,,,,,,,,,,,,,,,,,,,,,,07-09-2022,F460,2022-09-07_08h50.06.803,tareaTDv3,2020.2.5,Win32,60,,,left,0.0,3.6241,0.0,25.0,25.0,14.0,1.0,10000.0,0.0,150000.0,30.0
,,,,,,,,,,,,,,,,,,,,,,,07-09-2022,F460,2022-09-07_08h50.06.803,tareaTDv3,2020.2.5,Win32,60,,,right,0.0,0.8557,0.0,26.0,26.0,80.0,1.0,25000.0,0.0,35000.0,90.0
,,,,,,,,,,,,,,,,,,,,,,,07-09-2022,F460,2022-09-07_08h50.06.803,tareaTDv3,2020.2.5,Win32,60,,,left,0.0,0.9693,0.0,27.0,27.0,13.0,1.0,10000.0,0.0,111000.0,30.0
,,,,,,,,,,,,,,,,,,,,,,,07-09-2022,F460,2022-09-07_08h50.06.803,tareaTDv3,2020.2.5,Win32,60,,,right,1.0,1.6342,0.0,28.0,28.0,36.0,1.0,5000.0,0.0,36000.0,9.0
,,,,,,,,,,,,,,,,,,,,,,,07-09-2022,F460,2022-09-07_08h50.06.803,tareaTDv3,2020.2.5,Win32,60,,,right,1.0,1.5038,0.0,29.0,29.0,32.0,1.0,5000.0,0.0,54000.0,5.0
,,,,,,,,,,,,,,,,,,,,,,,07-09-2022,F460,2022-09-07_08h50.06.803,tareaTDv3,2020.2.5,Win32,60,,,left,0.0,1.0449,0.0,30.0,30.0,18.0,1.0,10000.0,0.0,110000.0,60.0
,,,,,,,,,,,,,,,,,,,,,,,07-09-2022,F460,2022-09-07_08h50.06.803,tareaTDv3,2020.2.5,Win32,60,,,right,0.0,1.6189,0.0,31.0,31.0,46.0,1.0,5000.0,0.0,36000.0,61.0
,,,,,,,,,,,,,,,,,,,,,,,07-09-2022,F460,2022-09-07_08h50.06.803,tareaTDv3,2020.2.5,Win32,60,,,left,0.0,0.9223,0.0,32.0,32.0,44.0,1.0,5000.0,0.0,150000.0,30.0
,,,,,,,,,,,,,,,,,,,,,,,07-09-2022,F460,2022-09-07_08h50.06.803,tareaTDv3,2020.2.5,Win32,60,,,left,0.0,0.6943,0.0,33.0,33.0,85.0,1.0,25000.0,0.0,35000.0,150.0
,,,,,,,,,,,,,,,,,,,,,,,07-09-2022,F460,2022-09-07_08h50.06.803,tareaTDv3,2020.2.5,Win32,60,,,right,0.0,0.7762,0.0,34.0,34.0,81.0,1.0,25000.0,0.0,55000.0,90.0
,,,,,,,,,,,,,,,,,,,,,,,07-09-2022,F460,2022-09-07_08h50.06.803,tareaTDv3,2020.2.5,Win32,60,,,left,0.0,2.5208,0.0,35.0,35.0,41.0,1.0,5000.0,0.0,35000.0,31.0
,,,,,,,,,,,,,,,,,,,,,,,07-09-2022,F460,2022-09-07_08h50.06.803,tareaTDv3,2020.2.5,Win32,60,,,right,0.0,1.0085,0.0,36.0,36.0,24.0,1.0,10000.0,0.0,149000.0,89.0
,,,,,,,,,,,,,,,,,,,,,,,07-09-2022,F460,2022-09-07_08h50.06.803,tareaTDv3,2020.2.5,Win32,60,,,right,0.0,0.9674,0.0,37.0,37.0,53.0,1.0,5000.0,0.0,104000.0,90.0
,,,,,,,,,,,,,,,,,,,,,,,07-09-2022,F460,2022-09-07_08h50.06.803,tareaTDv3,2020.2.5,Win32,60,,,left,1.0,2.2188,0.0,38.0,38.0,68.0,1.0,25000.0,0.0,125000.0,9.0
,,,,,,,,,,,,,,,,,,,,,,,07-09-2022,F460,2022-09-07_08h50.06.803,tareaTDv3,2020.2.5,Win32,60,,,left,1.0,4.7463,0.0,39.0,39.0,35.0,1.0,5000.0,0.0,15000.0,11.0
,,,,,,,,,,,,,,,,,,,,,,,07-09-2022,F460,2022-09-07_08h50.06.803,tareaTDv3,2020.2.5,Win32,60,,,left,1.0,0.7539,0.0,40.0,40.0,66.0,1.0,25000.0,0.0,55000.0,11.0
,,,,,,,,,,,,,,,,,,,,,,,07-09-2022,F460,2022-09-07_08h50.06.803,tareaTDv3,2020.2.5,Win32,60,,,left,0.0,4.361,0.0,41.0,41.0,71.0,1.0,25000.0,0.0,55000.0,30.0
,,,,,,,,,,,,,,,,,,,,,,,07-09-2022,F460,2022-09-07_08h50.06.803,tareaTDv3,2020.2.5,Win32,60,,,right,0.0,3.6832,0.0,42.0,42.0,11.0,1.0,10000.0,0.0,39000.0,29.0
,,,,,,,,,,,,,,,,,,,,,,,07-09-2022,F460,2022-09-07_08h50.06.803,tareaTDv3,2020.2.5,Win32,60,,,right,0.0,1.2491,0.0,43.0,43.0,12.0,1.0,10000.0,0.0,60000.0,29.0
,,,,,,,,,,,,,,,,,,,,,,,07-09-2022,F460,2022-09-07_08h50.06.803,tareaTDv3,2020.2.5,Win32,60,,,right,1.0,1.1426,0.0,44.0,44.0,1.0,1.0,10000.0,0.0,39000.0,6.0
,,,,,,,,,,,,,,,,,,,,,,,07-09-2022,F460,2022-09-07_08h50.06.803,tareaTDv3,2020.2.5,Win32,60,,,right,1.0,0.7173,0.0,45.0,45.0,61.0,1.0,25000.0,0.0,55000.0,6.0
,,,,,,,,,,,,,,,,,,,,,,,07-09-2022,F460,2022-09-07_08h50.06.803,tareaTDv3,2020.2.5,Win32,60,,,right,0.0,1.9441,0.0,46.0,46.0,77.0,1.0,25000.0,0.0,75000.0,59.0
,,,,,,,,,,,,,,,,,,,,,,,07-09-2022,F460,2022-09-07_08h50.06.803,tareaTDv3,2020.2.5,Win32,60,,,left,0.0,1.5596,0.0,47.0,47.0,64.0,1.0,25000.0,0.0,150000.0,4.0
,,,,,,,,,,,,,,,,,,,,,,,07-09-2022,F460,2022-09-07_08h50.06.803,tareaTDv3,2020.2.5,Win32,60,,,right,0.0,1.6379,0.0,48.0,48.0,54.0,1.0,5000.0,0.0,150000.0,90.0
,,,,,,,,,,,,,,,,,,,,,,,07-09-2022,F460,2022-09-07_08h50.06.803,tareaTDv3,2020.2.5,Win32,60,,,right,0.0,2.2478,0.0,49.0,49.0,15.0,1.0,10000.0,0.0,20000.0,59.0
,,,,,,,,,,,,,,,,,,,,,,,07-09-2022,F460,2022-09-07_08h50.06.803,tareaTDv3,2020.2.5,Win32,60,,,left,1.0,1.2932,0.0,50.0,50.0,9.0,1.0,10000.0,0.0,151000.0,11.0
,,,,,,,,,,,,,,,,,,,,,,,07-09-2022,F460,2022-09-07_08h50.06.803,tareaTDv3,2020.2.5,Win32,60,,,right,0.0,1.0523,0.0,51.0,51.0,73.0,1.0,25000.0,0.0,125000.0,31.0
,,,,,,,,,,,,,,,,,,,,,,,07-09-2022,F460,2022-09-07_08h50.06.803,tareaTDv3,2020.2.5,Win32,60,,,left,0.0,0.8249,0.0,52.0,52.0,25.0,1.0,10000.0,0.0,10000.0,150.0
,,,,,,,,,,,,,,,,,,,,,,,07-09-2022,F460,2022-09-07_08h50.06.803,tareaTDv3,2020.2.5,Win32,60,,,left,0.0,1.3758,0.0,53.0,53.0,20.0,1.0,10000.0,0.0,20000.0,90.0
,,,,,,,,,,,,,,,,,,,,,,,07-09-2022,F460,2022-09-07_08h50.06.803,tareaTDv3,2020.2.5,Win32,60,,,right,0.0,1.9725,0.0,54.0,54.0,59.0,1.0,5000.0,0.0,151000.0,150.0
,,,,,,,,,,,,,,,,,,,,,,,07-09-2022,F460,2022-09-07_08h50.06.803,tareaTDv3,2020.2.5,Win32,60,,,left,1.0,1.5673,0.0,55.0,55.0,23.0,1.0,10000.0,0.0,110000.0,90.0
,,,,,,,,,,,,,,,,,,,,,,,07-09-2022,F460,2022-09-07_08h50.06.803,tareaTDv3,2020.2.5,Win32,60,,,right,1.0,1.5545,0.0,56.0,56.0,63.0,1.0,25000.0,0.0,125000.0,4.0
,,,,,,,,,,,,,,,,,,,,,,,07-09-2022,F460,2022-09-07_08h50.06.803,tareaTDv3,2020.2.5,Win32,60,,,left,0.0,0.7972,0.0,57.0,57.0,84.0,1.0,25000.0,0.0,150000.0,89.0
,,,,,,,,,,,,,,,,,,,,,,,07-09-2022,F460,2022-09-07_08h50.06.803,tareaTDv3,2020.2.5,Win32,60,,,left,0.0,5.254,0.0,58.0,58.0,28.0,1.0,10000.0,0.0,109000.0,149.0
,,,,,,,,,,,,,,,,,,,,,,,07-09-2022,F460,2022-09-07_08h50.06.803,tareaTDv3,2020.2.5,Win32,60,,,right,0.0,1.2536,0.0,59.0,59.0,56.0,1.0,5000.0,0.0,35000.0,150.0
,,,,,,,,,,,,,,,,,,,,,,,07-09-2022,F460,2022-09-07_08h50.06.803,tareaTDv3,2020.2.5,Win32,60,,,left,1.0,2.1341,0.0,60.0,60.0,2.0,1.0,10000.0,0.0,61000.0,4.0
,,,,,,,,,,,,,,,,,,,,,,,07-09-2022,F460,2022-09-07_08h50.06.803,tareaTDv3,2020.2.5,Win32,60,,,left,1.0,2.1961,0.0,61.0,61.0,30.0,1.0,5000.0,0.0,16000.0,4.0
,,,,,,,,,,,,,,,,,,,,,,,07-09-2022,F460,2022-09-07_08h50.06.803,tareaTDv3,2020.2.5,Win32,60,,,right,0.0,5.7577,0.0,62.0,62.0,79.0,1.0,25000.0,0.0,150000.0,61.0
,,,,,,,,,,,,,,,,,,,,,,,07-09-2022,F460,2022-09-07_08h50.06.803,tareaTDv3,2020.2.5,Win32,60,,,left,1.0,2.7487,0.0,63.0,63.0,42.0,1.0,5000.0,0.0,56000.0,29.0
,,,,,,,,,,,,,,,,,,,,,,,07-09-2022,F460,2022-09-07_08h50.06.803,tareaTDv3,2020.2.5,Win32,60,,,left,0.0,1.162,0.0,64.0,64.0,76.0,1.0,25000.0,0.0,55000.0,60.0
,,,,,,,,,,,,,,,,,,,,,,,07-09-2022,F460,2022-09-07_08h50.06.803,tareaTDv3,2020.2.5,Win32,60,,,right,1.0,1.2504,0.0,65.0,65.0,8.0,1.0,10000.0,0.0,111000.0,10.0
,,,,,,,,,,,,,,,,,,,,,,,07-09-2022,F460,2022-09-07_08h50.06.803,tareaTDv3,2020.2.5,Win32,60,,,left,1.0,1.568,0.0,66.0,66.0,4.0,1.0,10000.0,0.0,150000.0,5.0
,,,,,,,,,,,,,,,,,,,,,,,07-09-2022,F460,2022-09-07_08h50.06.803,tareaTDv3,2020.2.5,Win32,60,,,left,1.0,1.7232,0.0,67.0,67.0,45.0,1.0,5000.0,0.0,15000.0,61.0
,,,,,,,,,,,,,,,,,,,,,,,07-09-2022,F460,2022-09-07_08h50.06.803,tareaTDv3,2020.2.5,Win32,60,,,right,1.0,5.1314,0.0,68.0,68.0,3.0,1.0,10000.0,0.0,109000.0,5.0
,,,,,,,,,,,,,,,,,,,,,,,07-09-2022,F460,2022-09-07_08h50.06.803,tareaTDv3,2020.2.5,Win32,60,,,right,1.0,2.0639,0.0,69.0,69.0,7.0,1.0,10000.0,0.0,59000.0,9.0
,,,,,,,,,,,,,,,,,,,,,,,07-09-2022,F460,2022-09-07_08h50.06.803,tareaTDv3,2020.2.5,Win32,60,,,left,1.0,10.5904,0.0,70.0,70.0,49.0,1.0,5000.0,0.0,149000.0,59.0
,,,,,,,,,,,,,,,,,,,,,,,07-09-2022,F460,2022-09-07_08h50.06.803,tareaTDv3,2020.2.5,Win32,60,,,right,0.0,3.3113,0.0,71.0,71.0,40.0,1.0,5000.0,0.0,14000.0,31.0
,,,,,,,,,,,,,,,,,,,,,,,07-09-2022,F460,2022-09-07_08h50.06.803,tareaTDv3,2020.2.5,Win32,60,,,left,0.0,1.5846,0.0,72.0,72.0,58.0,1.0,5000.0,0.0,106000.0,152.0
,,,,,,,,,,,,,,,,,,,,,,,07-09-2022,F460,2022-09-07_08h50.06.803,tareaTDv3,2020.2.5,Win32,60,,,left,0.0,1.6636,0.0,73.0,73.0,5.0,1.0,10000.0,0.0,19000.0,11.0
,,,,,,,,,,,,,,,,,,,,,,,07-09-2022,F460,2022-09-07_08h50.06.803,tareaTDv3,2020.2.5,Win32,60,,,left,0.0,1.6209,0.0,74.0,74.0,86.0,1.0,25000.0,0.0,55000.0,151.0
,,,,,,,,,,,,,,,,,,,,,,,07-09-2022,F460,2022-09-07_08h50.06.803,tareaTDv3,2020.2.5,Win32,60,,,right,0.0,0.933,0.0,75.0,75.0,16.0,1.0,10000.0,0.0,39000.0,59.0
,,,,,,,,,,,,,,,,,,,,,,,07-09-2022,F460,2022-09-07_08h50.06.803,tareaTDv3,2020.2.5,Win32,60,,,right,0.0,3.5556,0.0,76.0,76.0,82.0,1.0,25000.0,0.0,75000.0,90.0
,,,,,,,,,,,,,,,,,,,,,,,07-09-2022,F460,2022-09-07_08h50.06.803,tareaTDv3,2020.2.5,Win32,60,,,left,1.0,1.8322,0.0,77.0,77.0,69.0,1.0,25000.0,0.0,150000.0,9.0
,,,,,,,,,,,,,,,,,,,,,,,07-09-2022,F460,2022-09-07_08h50.06.803,tareaTDv3,2020.2.5,Win32,60,,,left,0.0,0.0965,0.0,78.0,78.0,29.0,1.0,10000.0,0.0,151000.0,151.0
,,,,,,,,,,,,,,,,,,,,,,,07-09-2022,F460,2022-09-07_08h50.06.803,tareaTDv3,2020.2.5,Win32,60,,,right,0.0,1.3673,0.0,79.0,79.0,74.0,1.0,25000.0,0.0,150000.0,29.0
,,,,,,,,,,,,,,,,,,,,,,,07-09-2022,F460,2022-09-07_08h50.06.803,tareaTDv3,2020.2.5,Win32,60,,,right,0.0,1.224,0.0,80.0,80.0,72.0,1.0,25000.0,0.0,75000.0,31.0
,,,,,,,,,,,,,,,,,,,,,,,07-09-2022,F460,2022-09-07_08h50.06.803,tareaTDv3,2020.2.5,Win32,60,,,left,1.0,1.789,0.0,81.0,81.0,38.0,1.0,5000.0,0.0,104000.0,10.0
,,,,,,,,,,,,,,,,,,,,,,,07-09-2022,F460,2022-09-07_08h50.06.803,tareaTDv3,2020.2.5,Win32,60,,,right,1.0,0.9862,0.0,82.0,82.0,39.0,1.0,5000.0,0.0,149000.0,10.0
,,,,,,,,,,,,,,,,,,,,,,,07-09-2022,F460,2022-09-07_08h50.06.803,tareaTDv3,2020.2.5,Win32,60,,,left,1.0,0.734,0.0,83.0,83.0,67.0,1.0,25000.0,0.0,75000.0,10.0
,,,,,,,,,,,,,,,,,,,,,,,07-09-2022,F460,2022-09-07_08h50.06.803,tareaTDv3,2020.2.5,Win32,60,,,left,0.0,0.8761,0.0,84.0,84.0,87.0,1.0,25000.0,0.0,75000.0,151.0
,,,,,,,,,,,,,,,,,,,,,,,07-09-2022,F460,2022-09-07_08h50.06.803,tareaTDv3,2020.2.5,Win32,60,,,left,1.0,0.7173,0.0,85.0,85.0,37.0,1.0,5000.0,0.0,56000.0,9.0
,,,,,,,,,,,,,,,,,,,,,,,07-09-2022,F460,2022-09-07_08h50.06.803,tareaTDv3,2020.2.5,Win32,60,,,right,0.0,1.4539,0.0,86.0,86.0,0.0,1.0,10000.0,0.0,20000.0,5.0
,,,,,,,,,,,,,,,,,,,,,,,07-09-2022,F460,2022-09-07_08h50.06.803,tareaTDv3,2020.2.5,Win32,60,,,left,1.0,1.5994,0.0,87.0,87.0,48.0,1.0,5000.0,0.0,105000.0,60.0
,,,,,,,,,,,,,,,,,,,,,,,07-09-2022,F460,2022-09-07_08h50.06.803,tareaTDv3,2020.2.5,Win32,60,,,right,1.0,1.432,0.0,88.0,88.0,89.0,1.0,25000.0,0.0,150000.0,150.0
,,,,,,,,,,,,,,,,,,,,,,,07-09-2022,F460,2022-09-07_08h50.06.803,tareaTDv3,2020.2.5,Win32,60,,,left,0.0,0.606,0.0,89.0,89.0,78.0,1.0,25000.0,0.0,125000.0,59.0
