key1.keys,key1.rt,key2.keys,key2.rt,key2_2.keys,key2_2.rt,key2_3.keys,key2_3.rt,key3.keys,key3.rt,key4.keys,key4.rt,respP.keys,respP.corr,respP.rt,Practice.thisRepN,Practice.thisTrialN,Practice.thisN,Practice.thisIndex,Practice.ran,ssAmount,llAmount,llDelay,session,participant,date,expName,psychopyVersion,OS,frameRate,key5.keys,key5.rt,respT.keys,respT.corr,respT.rt,trials.thisRepN,trials.thisTrialN,trials.thisN,trials.thisIndex,trials.ran,ss_am,ss_del,ll_am,ll_del
space,31.6203,space,17.8343,space,21.8912,space,5.312,right,16.0931,space,1.4619,left,1.0,6.5606,0.0,0.0,0.0,0.0,1.0,10000.0,109000.0,9.0,2,F461,2022-09-07_08h01.32.171,tareaTDv3,2020.2.5,Win32,60,,,,,,,,,,,,,,
,,,,,,,,,,,,left,0.0,4.7238,0.0,1.0,1.0,1.0,1.0,25000.0,35000.0,150.0,2,F461,2022-09-07_08h01.32.171,tareaTDv3,2020.2.5,Win32,60,,,,,,,,,,,,,,
,,,,,,,,,,,,left,0.0,3.0244,0.0,2.0,2.0,2.0,1.0,10000.0,19000.0,89.0,2,F461,2022-09-07_08h01.32.171,tareaTDv3,2020.2.5,Win32,60,,,,,,,,,,,,,,
,,,,,,,,,,,,,,,,,,,,,,,2,F461,2022-09-07_08h01.32.171,tareaTDv3,2020.2.5,Win32,60,g,12.2296,right,0.0,18.3384,0.0,0.0,0.0,29.0,1.0,10000.0,0.0,151000.0,151.0
,,,,,,,,,,,,,,,,,,,,,,,2,F461,2022-09-07_08h01.32.171,tareaTDv3,2020.2.5,Win32,60,,,left,1.0,2.833,0.0,1.0,1.0,18.0,1.0,10000.0,0.0,110000.0,60.0
,,,,,,,,,,,,,,,,,,,,,,,2,F461,2022-09-07_08h01.32.171,tareaTDv3,2020.2.5,Win32,60,,,left,1.0,11.3682,0.0,2.0,2.0,51.0,1.0,5000.0,0.0,35000.0,89.0
,,,,,,,,,,,,,,,,,,,,,,,2,F461,2022-09-07_08h01.32.171,tareaTDv3,2020.2.5,Win32,60,,,right,1.0,2.4345,0.0,3.0,3.0,31.0,1.0,5000.0,0.0,35000.0,6.0
,,,,,,,,,,,,,,,,,,,,,,,2,F461,2022-09-07_08h01.32.171,tareaTDv3,2020.2.5,Win32,60,,,left,1.0,4.3475,0.0,4.0,4.0,72.0,1.0,25000.0,0.0,75000.0,31.0
,,,,,,,,,,,,,,,,,,,,,,,2,F461,2022-09-07_08h01.32.171,tareaTDv3,2020.2.5,Win32,60,,,left,0.0,3.3668,0.0,5.0,5.0,25.0,1.0,10000.0,0.0,10000.0,150.0
,,,,,,,,,,,,,,,,,,,,,,,2,F461,2022-09-07_08h01.32.171,tareaTDv3,2020.2.5,Win32,60,,,left,1.0,3.8327,0.0,6.0,6.0,67.0,1.0,25000.0,0.0,75000.0,10.0
,,,,,,,,,,,,,,,,,,,,,,,2,F461,2022-09-07_08h01.32.171,tareaTDv3,2020.2.5,Win32,60,,,right,1.0,3.0306,0.0,7.0,7.0,38.0,1.0,5000.0,0.0,104000.0,10.0
,,,,,,,,,,,,,,,,,,,,,,,2,F461,2022-09-07_08h01.32.171,tareaTDv3,2020.2.5,Win32,60,,,right,1.0,4.5247,0.0,8.0,8.0,11.0,1.0,10000.0,0.0,39000.0,29.0
,,,,,,,,,,,,,,,,,,,,,,,2,F461,2022-09-07_08h01.32.171,tareaTDv3,2020.2.5,Win32,60,,,right,0.0,9.9108,0.0,9.0,9.0,71.0,1.0,25000.0,0.0,55000.0,30.0
,,,,,,,,,,,,,,,,,,,,,,,2,F461,2022-09-07_08h01.32.171,tareaTDv3,2020.2.5,Win32,60,,,left,1.0,2.2665,0.0,10.0,10.0,9.0,1.0,10000.0,0.0,151000.0,11.0
,,,,,,,,,,,,,,,,,,,,,,,2,F461,2022-09-07_08h01.32.171,tareaTDv3,2020.2.5,Win32,60,,,left,1.0,2.3645,0.0,11.0,11.0,60.0,1.0,25000.0,0.0,35000.0,5.0
,,,,,,,,,,,,,,,,,,,,,,,2,F461,2022-09-07_08h01.32.171,tareaTDv3,2020.2.5,Win32,60,,,right,1.0,2.5723,0.0,12.0,12.0,7.0,1.0,10000.0,0.0,59000.0,9.0
,,,,,,,,,,,,,,,,,,,,,,,2,F461,2022-09-07_08h01.32.171,tareaTDv3,2020.2.5,Win32,60,,,right,1.0,2.0864,0.0,13.0,13.0,65.0,1.0,25000.0,0.0,35000.0,11.0
,,,,,,,,,,,,,,,,,,,,,,,2,F461,2022-09-07_08h01.32.171,tareaTDv3,2020.2.5,Win32,60,,,left,1.0,2.1777,0.0,14.0,14.0,35.0,1.0,5000.0,0.0,15000.0,11.0
,,,,,,,,,,,,,,,,,,,,,,,2,F461,2022-09-07_08h01.32.171,tareaTDv3,2020.2.5,Win32,60,,,left,0.0,4.3099,0.0,15.0,15.0,81.0,1.0,25000.0,0.0,55000.0,90.0
,,,,,,,,,,,,,,,,,,,,,,,2,F461,2022-09-07_08h01.32.171,tareaTDv3,2020.2.5,Win32,60,,,left,0.0,5.5963,0.0,16.0,16.0,82.0,1.0,25000.0,0.0,75000.0,90.0
,,,,,,,,,,,,,,,,,,,,,,,2,F461,2022-09-07_08h01.32.171,tareaTDv3,2020.2.5,Win32,60,,,left,1.0,3.0474,0.0,17.0,17.0,62.0,1.0,25000.0,0.0,75000.0,5.0
,,,,,,,,,,,,,,,,,,,,,,,2,F461,2022-09-07_08h01.32.171,tareaTDv3,2020.2.5,Win32,60,,,left,1.0,5.6409,0.0,18.0,18.0,2.0,1.0,10000.0,0.0,61000.0,4.0
,,,,,,,,,,,,,,,,,,,,,,,2,F461,2022-09-07_08h01.32.171,tareaTDv3,2020.2.5,Win32,60,,,left,0.0,5.8765,0.0,19.0,19.0,46.0,1.0,5000.0,0.0,36000.0,61.0
,,,,,,,,,,,,,,,,,,,,,,,2,F461,2022-09-07_08h01.32.171,tareaTDv3,2020.2.5,Win32,60,,,right,1.0,4.0442,0.0,20.0,20.0,48.0,1.0,5000.0,0.0,105000.0,60.0
,,,,,,,,,,,,,,,,,,,,,,,2,F461,2022-09-07_08h01.32.171,tareaTDv3,2020.2.5,Win32,60,,,right,1.0,9.5629,0.0,21.0,21.0,36.0,1.0,5000.0,0.0,36000.0,9.0
,,,,,,,,,,,,,,,,,,,,,,,2,F461,2022-09-07_08h01.32.171,tareaTDv3,2020.2.5,Win32,60,,,right,0.0,1.9056,0.0,22.0,22.0,75.0,1.0,25000.0,0.0,35000.0,60.0
,,,,,,,,,,,,,,,,,,,,,,,2,F461,2022-09-07_08h01.32.171,tareaTDv3,2020.2.5,Win32,60,,,left,1.0,11.6028,0.0,23.0,23.0,33.0,1.0,5000.0,0.0,104000.0,5.0
,,,,,,,,,,,,,,,,,,,,,,,2,F461,2022-09-07_08h01.32.171,tareaTDv3,2020.2.5,Win32,60,,,right,0.0,4.1923,0.0,24.0,24.0,55.0,1.0,5000.0,0.0,14000.0,149.0
,,,,,,,,,,,,,,,,,,,,,,,2,F461,2022-09-07_08h01.32.171,tareaTDv3,2020.2.5,Win32,60,,,right,0.0,8.6627,0.0,25.0,25.0,77.0,1.0,25000.0,0.0,75000.0,59.0
,,,,,,,,,,,,,,,,,,,,,,,2,F461,2022-09-07_08h01.32.171,tareaTDv3,2020.2.5,Win32,60,,,right,1.0,2.7602,0.0,26.0,26.0,63.0,1.0,25000.0,0.0,125000.0,4.0
,,,,,,,,,,,,,,,,,,,,,,,2,F461,2022-09-07_08h01.32.171,tareaTDv3,2020.2.5,Win32,60,,,right,0.0,15.2706,0.0,27.0,27.0,84.0,1.0,25000.0,0.0,150000.0,89.0
,,,,,,,,,,,,,,,,,,,,,,,2,F461,2022-09-07_08h01.32.171,tareaTDv3,2020.2.5,Win32,60,,,right,0.0,2.0109,0.0,28.0,28.0,89.0,1.0,25000.0,0.0,150000.0,150.0
,,,,,,,,,,,,,,,,,,,,,,,2,F461,2022-09-07_08h01.32.171,tareaTDv3,2020.2.5,Win32,60,,,left,1.0,4.7061,0.0,29.0,29.0,12.0,1.0,10000.0,0.0,60000.0,29.0
,,,,,,,,,,,,,,,,,,,,,,,2,F461,2022-09-07_08h01.32.171,tareaTDv3,2020.2.5,Win32,60,,,right,0.0,1.5409,0.0,30.0,30.0,86.0,1.0,25000.0,0.0,55000.0,151.0
,,,,,,,,,,,,,,,,,,,,,,,2,F461,2022-09-07_08h01.32.171,tareaTDv3,2020.2.5,Win32,60,,,left,1.0,2.7704,0.0,31.0,31.0,41.0,1.0,5000.0,0.0,35000.0,31.0
,,,,,,,,,,,,,,,,,,,,,,,2,F461,2022-09-07_08h01.32.171,tareaTDv3,2020.2.5,Win32,60,,,right,1.0,2.1628,0.0,32.0,32.0,37.0,1.0,5000.0,0.0,56000.0,9.0
,,,,,,,,,,,,,,,,,,,,,,,2,F461,2022-09-07_08h01.32.171,tareaTDv3,2020.2.5,Win32,60,,,left,1.0,3.4383,0.0,33.0,33.0,74.0,1.0,25000.0,0.0,150000.0,29.0
,,,,,,,,,,,,,,,,,,,,,,,2,F461,2022-09-07_08h01.32.171,tareaTDv3,2020.2.5,Win32,60,,,right,1.0,13.3557,0.0,34.0,34.0,78.0,1.0,25000.0,0.0,125000.0,59.0
,,,,,,,,,,,,,,,,,,,,,,,2,F461,2022-09-07_08h01.32.171,tareaTDv3,2020.2.5,Win32,60,,,left,0.0,3.3227,0.0,35.0,35.0,80.0,1.0,25000.0,0.0,35000.0,90.0
,,,,,,,,,,,,,,,,,,,,,,,2,F461,2022-09-07_08h01.32.171,tareaTDv3,2020.2.5,Win32,60,,,left,0.0,3.9661,0.0,36.0,36.0,50.0,1.0,5000.0,0.0,15000.0,91.0
,,,,,,,,,,,,,,,,,,,,,,,2,F461,2022-09-07_08h01.32.171,tareaTDv3,2020.2.5,Win32,60,,,right,1.0,2.5587,0.0,37.0,37.0,4.0,1.0,10000.0,0.0,150000.0,5.0
,,,,,,,,,,,,,,,,,,,,,,,2,F461,2022-09-07_08h01.32.171,tareaTDv3,2020.2.5,Win32,60,,,left,1.0,7.1323,0.0,38.0,38.0,43.0,1.0,5000.0,0.0,106000.0,29.0
,,,,,,,,,,,,,,,,,,,,,,,2,F461,2022-09-07_08h01.32.171,tareaTDv3,2020.2.5,Win32,60,,,left,1.0,3.4122,0.0,39.0,39.0,3.0,1.0,10000.0,0.0,109000.0,5.0
,,,,,,,,,,,,,,,,,,,,,,,2,F461,2022-09-07_08h01.32.171,tareaTDv3,2020.2.5,Win32,60,,,right,1.0,2.7203,0.0,40.0,40.0,42.0,1.0,5000.0,0.0,56000.0,29.0
,,,,,,,,,,,,,,,,,,,,,,,2,F461,2022-09-07_08h01.32.171,tareaTDv3,2020.2.5,Win32,60,,,right,0.0,6.3365,0.0,41.0,41.0,40.0,1.0,5000.0,0.0,14000.0,31.0
,,,,,,,,,,,,,,,,,,,,,,,2,F461,2022-09-07_08h01.32.171,tareaTDv3,2020.2.5,Win32,60,,,left,0.0,3.2502,0.0,42.0,42.0,10.0,1.0,10000.0,0.0,21000.0,31.0
,,,,,,,,,,,,,,,,,,,,,,,2,F461,2022-09-07_08h01.32.171,tareaTDv3,2020.2.5,Win32,60,,,right,0.0,5.5987,0.0,43.0,43.0,20.0,1.0,10000.0,0.0,20000.0,90.0
,,,,,,,,,,,,,,,,,,,,,,,2,F461,2022-09-07_08h01.32.171,tareaTDv3,2020.2.5,Win32,60,,,left,0.0,2.4757,0.0,44.0,44.0,16.0,1.0,10000.0,0.0,39000.0,59.0
,,,,,,,,,,,,,,,,,,,,,,,2,F461,2022-09-07_08h01.32.171,tareaTDv3,2020.2.5,Win32,60,,,right,1.0,2.0812,0.0,45.0,45.0,0.0,1.0,10000.0,0.0,20000.0,5.0
,,,,,,,,,,,,,,,,,,,,,,,2,F461,2022-09-07_08h01.32.171,tareaTDv3,2020.2.5,Win32,60,,,right,1.0,4.3222,0.0,46.0,46.0,32.0,1.0,5000.0,0.0,54000.0,5.0
,,,,,,,,,,,,,,,,,,,,,,,2,F461,2022-09-07_08h01.32.171,tareaTDv3,2020.2.5,Win32,60,,,right,1.0,7.7062,0.0,47.0,47.0,1.0,1.0,10000.0,0.0,39000.0,6.0
,,,,,,,,,,,,,,,,,,,,,,,2,F461,2022-09-07_08h01.32.171,tareaTDv3,2020.2.5,Win32,60,,,right,1.0,2.7182,0.0,48.0,48.0,39.0,1.0,5000.0,0.0,149000.0,10.0
,,,,,,,,,,,,,,,,,,,,,,,2,F461,2022-09-07_08h01.32.171,tareaTDv3,2020.2.5,Win32,60,,,left,0.0,2.7247,0.0,49.0,49.0,88.0,1.0,25000.0,0.0,125000.0,149.0
,,,,,,,,,,,,,,,,,,,,,,,2,F461,2022-09-07_08h01.32.171,tareaTDv3,2020.2.5,Win32,60,,,right,1.0,11.834,0.0,50.0,50.0,79.0,1.0,25000.0,0.0,150000.0,61.0
,,,,,,,,,,,,,,,,,,,,,,,2,F461,2022-09-07_08h01.32.171,tareaTDv3,2020.2.5,Win32,60,,,left,1.0,16.8055,0.0,51.0,51.0,54.0,1.0,5000.0,0.0,150000.0,90.0
,,,,,,,,,,,,,,,,,,,,,,,2,F461,2022-09-07_08h01.32.171,tareaTDv3,2020.2.5,Win32,60,,,left,1.0,10.2071,0.0,52.0,52.0,66.0,1.0,25000.0,0.0,55000.0,11.0
,,,,,,,,,,,,,,,,,,,,,,,2,F461,2022-09-07_08h01.32.171,tareaTDv3,2020.2.5,Win32,60,,,left,1.0,3.7307,0.0,53.0,53.0,69.0,1.0,25000.0,0.0,150000.0,9.0
,,,,,,,,,,,,,,,,,,,,,,,2,F461,2022-09-07_08h01.32.171,tareaTDv3,2020.2.5,Win32,60,,,left,0.0,2.3938,0.0,54.0,54.0,59.0,1.0,5000.0,0.0,151000.0,150.0
,,,,,,,,,,,,,,,,,,,,,,,2,F461,2022-09-07_08h01.32.171,tareaTDv3,2020.2.5,Win32,60,,,right,1.0,2.7807,0.0,55.0,55.0,64.0,1.0,25000.0,0.0,150000.0,4.0
,,,,,,,,,,,,,,,,,,,,,,,2,F461,2022-09-07_08h01.32.171,tareaTDv3,2020.2.5,Win32,60,,,right,0.0,4.6097,0.0,56.0,56.0,70.0,1.0,25000.0,0.0,35000.0,30.0
,,,,,,,,,,,,,,,,,,,,,,,2,F461,2022-09-07_08h01.32.171,tareaTDv3,2020.2.5,Win32,60,,,right,0.0,9.3629,0.0,57.0,57.0,52.0,1.0,5000.0,0.0,56000.0,89.0
,,,,,,,,,,,,,,,,,,,,,,,2,F461,2022-09-07_08h01.32.171,tareaTDv3,2020.2.5,Win32,60,,,right,0.0,2.9277,0.0,58.0,58.0,83.0,1.0,25000.0,0.0,125000.0,89.0
,,,,,,,,,,,,,,,,,,,,,,,2,F461,2022-09-07_08h01.32.171,tareaTDv3,2020.2.5,Win32,60,,,left,1.0,3.0334,0.0,59.0,59.0,30.0,1.0,5000.0,0.0,16000.0,4.0
,,,,,,,,,,,,,,,,,,,,,,,2,F461,2022-09-07_08h01.32.171,tareaTDv3,2020.2.5,Win32,60,,,right,0.0,1.6166,0.0,60.0,60.0,58.0,1.0,5000.0,0.0,106000.0,152.0
,,,,,,,,,,,,,,,,,,,,,,,2,F461,2022-09-07_08h01.32.171,tareaTDv3,2020.2.5,Win32,60,,,left,0.0,2.5431,0.0,61.0,61.0,6.0,1.0,10000.0,0.0,40000.0,10.0
,,,,,,,,,,,,,,,,,,,,,,,2,F461,2022-09-07_08h01.32.171,tareaTDv3,2020.2.5,Win32,60,,,left,0.0,15.8602,0.0,62.0,62.0,85.0,1.0,25000.0,0.0,35000.0,150.0
,,,,,,,,,,,,,,,,,,,,,,,2,F461,2022-09-07_08h01.32.171,tareaTDv3,2020.2.5,Win32,60,,,right,1.0,3.0376,0.0,63.0,63.0,61.0,1.0,25000.0,0.0,55000.0,6.0
,,,,,,,,,,,,,,,,,,,,,,,2,F461,2022-09-07_08h01.32.171,tareaTDv3,2020.2.5,Win32,60,,,right,1.0,2.1271,0.0,64.0,64.0,73.0,1.0,25000.0,0.0,125000.0,31.0
,,,,,,,,,,,,,,,,,,,,,,,2,F461,2022-09-07_08h01.32.171,tareaTDv3,2020.2.5,Win32,60,,,right,0.0,4.8592,0.0,65.0,65.0,45.0,1.0,5000.0,0.0,15000.0,61.0
,,,,,,,,,,,,,,,,,,,,,,,2,F461,2022-09-07_08h01.32.171,tareaTDv3,2020.2.5,Win32,60,,,left,0.0,3.5671,0.0,66.0,66.0,28.0,1.0,10000.0,0.0,109000.0,149.0
,,,,,,,,,,,,,,,,,,,,,,,2,F461,2022-09-07_08h01.32.171,tareaTDv3,2020.2.5,Win32,60,,,left,1.0,4.1966,0.0,67.0,67.0,49.0,1.0,5000.0,0.0,149000.0,59.0
,,,,,,,,,,,,,,,,,,,,,,,2,F461,2022-09-07_08h01.32.171,tareaTDv3,2020.2.5,Win32,60,,,left,0.0,2.2238,0.0,68.0,68.0,26.0,1.0,10000.0,0.0,39000.0,150.0
,,,,,,,,,,,,,,,,,,,,,,,2,F461,2022-09-07_08h01.32.171,tareaTDv3,2020.2.5,Win32,60,,,left,1.0,3.7298,0.0,69.0,69.0,17.0,1.0,10000.0,0.0,60000.0,60.0
,,,,,,,,,,,,,,,,,,,,,,,2,F461,2022-09-07_08h01.32.171,tareaTDv3,2020.2.5,Win32,60,,,right,0.0,1.643,0.0,70.0,70.0,57.0,1.0,5000.0,0.0,55000.0,151.0
,,,,,,,,,,,,,,,,,,,,,,,2,F461,2022-09-07_08h01.32.171,tareaTDv3,2020.2.5,Win32,60,,,left,0.0,2.9619,0.0,71.0,71.0,15.0,1.0,10000.0,0.0,20000.0,59.0
,,,,,,,,,,,,,,,,,,,,,,,2,F461,2022-09-07_08h01.32.171,tareaTDv3,2020.2.5,Win32,60,,,right,0.0,5.5089,0.0,72.0,72.0,56.0,1.0,5000.0,0.0,35000.0,150.0
,,,,,,,,,,,,,,,,,,,,,,,2,F461,2022-09-07_08h01.32.171,tareaTDv3,2020.2.5,Win32,60,,,left,0.0,3.4256,0.0,73.0,73.0,47.0,1.0,5000.0,0.0,56000.0,60.0
,,,,,,,,,,,,,,,,,,,,,,,2,F461,2022-09-07_08h01.32.171,tareaTDv3,2020.2.5,Win32,60,,,right,0.0,4.5522,0.0,74.0,74.0,21.0,1.0,10000.0,0.0,40000.0,91.0
,,,,,,,,,,,,,,,,,,,,,,,2,F461,2022-09-07_08h01.32.171,tareaTDv3,2020.2.5,Win32,60,,,left,1.0,8.7045,0.0,75.0,75.0,34.0,1.0,5000.0,0.0,151000.0,4.0
,,,,,,,,,,,,,,,,,,,,,,,2,F461,2022-09-07_08h01.32.171,tareaTDv3,2020.2.5,Win32,60,,,left,0.0,1.1657,0.0,76.0,76.0,22.0,1.0,10000.0,0.0,61000.0,89.0
,,,,,,,,,,,,,,,,,,,,,,,2,F461,2022-09-07_08h01.32.171,tareaTDv3,2020.2.5,Win32,60,,,right,1.0,1.0857,0.0,77.0,77.0,5.0,1.0,10000.0,0.0,19000.0,11.0
,,,,,,,,,,,,,,,,,,,,,,,2,F461,2022-09-07_08h01.32.171,tareaTDv3,2020.2.5,Win32,60,,,left,0.0,2.4342,0.0,78.0,78.0,27.0,1.0,10000.0,0.0,61000.0,150.0
,,,,,,,,,,,,,,,,,,,,,,,2,F461,2022-09-07_08h01.32.171,tareaTDv3,2020.2.5,Win32,60,,,left,0.0,1.4664,0.0,79.0,79.0,19.0,1.0,10000.0,0.0,149000.0,61.0
,,,,,,,,,,,,,,,,,,,,,,,2,F461,2022-09-07_08h01.32.171,tareaTDv3,2020.2.5,Win32,60,,,right,0.0,2.2398,0.0,80.0,80.0,44.0,1.0,5000.0,0.0,150000.0,30.0
,,,,,,,,,,,,,,,,,,,,,,,2,F461,2022-09-07_08h01.32.171,tareaTDv3,2020.2.5,Win32,60,,,right,0.0,2.3931,0.0,81.0,81.0,87.0,1.0,25000.0,0.0,75000.0,151.0
,,,,,,,,,,,,,,,,,,,,,,,2,F461,2022-09-07_08h01.32.171,tareaTDv3,2020.2.5,Win32,60,,,right,1.0,3.022,0.0,82.0,82.0,14.0,1.0,10000.0,0.0,150000.0,30.0
,,,,,,,,,,,,,,,,,,,,,,,2,F461,2022-09-07_08h01.32.171,tareaTDv3,2020.2.5,Win32,60,,,left,1.0,6.4194,0.0,83.0,83.0,13.0,1.0,10000.0,0.0,111000.0,30.0
,,,,,,,,,,,,,,,,,,,,,,,2,F461,2022-09-07_08h01.32.171,tareaTDv3,2020.2.5,Win32,60,,,right,1.0,1.8008,0.0,84.0,84.0,8.0,1.0,10000.0,0.0,111000.0,10.0
,,,,,,,,,,,,,,,,,,,,,,,2,F461,2022-09-07_08h01.32.171,tareaTDv3,2020.2.5,Win32,60,,,right,0.0,8.4774,0.0,85.0,85.0,23.0,1.0,10000.0,0.0,110000.0,90.0
,,,,,,,,,,,,,,,,,,,,,,,2,F461,2022-09-07_08h01.32.171,tareaTDv3,2020.2.5,Win32,60,,,right,0.0,2.1317,0.0,86.0,86.0,76.0,1.0,25000.0,0.0,55000.0,60.0
,,,,,,,,,,,,,,,,,,,,,,,2,F461,2022-09-07_08h01.32.171,tareaTDv3,2020.2.5,Win32,60,,,right,1.0,8.7589,0.0,87.0,87.0,24.0,1.0,10000.0,0.0,149000.0,89.0
,,,,,,,,,,,,,,,,,,,,,,,2,F461,2022-09-07_08h01.32.171,tareaTDv3,2020.2.5,Win32,60,,,right,1.0,4.1174,0.0,88.0,88.0,68.0,1.0,25000.0,0.0,125000.0,9.0
,,,,,,,,,,,,,,,,,,,,,,,2,F461,2022-09-07_08h01.32.171,tareaTDv3,2020.2.5,Win32,60,,,right,0.0,1.9356,0.0,89.0,89.0,53.0,1.0,5000.0,0.0,104000.0,90.0
