key1.keys,key1.rt,key2.keys,key2.rt,key2_2.keys,key2_2.rt,key2_3.keys,key2_3.rt,key3.keys,key3.rt,key4.keys,key4.rt,respP.keys,respP.corr,respP.rt,Practice.thisRepN,Practice.thisTrialN,Practice.thisN,Practice.thisIndex,Practice.ran,ssAmount,llAmount,llDelay,session,participant,date,expName,psychopyVersion,OS,frameRate,key5.keys,key5.rt,respT.keys,respT.corr,respT.rt,trials.thisRepN,trials.thisTrialN,trials.thisN,trials.thisIndex,trials.ran,ss_am,ss_del,ll_am,ll_del
space,8.7065,space,31.8089,space,54.5752,space,7.2752,right,4.3299,space,2.1669,left,0.0,5.2338,0.0,0.0,0.0,0.0,1.0,10000.0,109000.0,9.0,07-09-2022,F463,2022-09-07_08h27.03.548,tareaTDv3,2020.2.5,Win32,60,,,,,,,,,,,,,,
,,,,,,,,,,,,left,0.0,6.731,0.0,1.0,1.0,1.0,1.0,25000.0,35000.0,150.0,07-09-2022,F463,2022-09-07_08h27.03.548,tareaTDv3,2020.2.5,Win32,60,,,,,,,,,,,,,,
,,,,,,,,,,,,right,0.0,16.7675,0.0,2.0,2.0,2.0,1.0,10000.0,19000.0,89.0,07-09-2022,F463,2022-09-07_08h27.03.548,tareaTDv3,2020.2.5,Win32,60,,,,,,,,,,,,,,
,,,,,,,,,,,,,,,,,,,,,,,07-09-2022,F463,2022-09-07_08h27.03.548,tareaTDv3,2020.2.5,Win32,60,g,20.2222,left,1.0,6.6524,0.0,0.0,0.0,37.0,1.0,5000.0,0.0,56000.0,9.0
,,,,,,,,,,,,,,,,,,,,,,,07-09-2022,F463,2022-09-07_08h27.03.548,tareaTDv3,2020.2.5,Win32,60,,,,0.0,,0.0,1.0,1.0,20.0,1.0,10000.0,0.0,20000.0,90.0
,,,,,,,,,,,,,,,,,,,,,,,07-09-2022,F463,2022-09-07_08h27.03.548,tareaTDv3,2020.2.5,Win32,60,,,left,1.0,4.1519,0.0,2.0,2.0,83.0,1.0,25000.0,0.0,125000.0,89.0
,,,,,,,,,,,,,,,,,,,,,,,07-09-2022,F463,2022-09-07_08h27.03.548,tareaTDv3,2020.2.5,Win32,60,,,right,1.0,3.6852,0.0,3.0,3.0,48.0,1.0,5000.0,0.0,105000.0,60.0
,,,,,,,,,,,,,,,,,,,,,,,07-09-2022,F463,2022-09-07_08h27.03.548,tareaTDv3,2020.2.5,Win32,60,,,right,1.0,3.5348,0.0,4.0,4.0,49.0,1.0,5000.0,0.0,149000.0,59.0
,,,,,,,,,,,,,,,,,,,,,,,07-09-2022,F463,2022-09-07_08h27.03.548,tareaTDv3,2020.2.5,Win32,60,,,right,0.0,5.7331,0.0,5.0,5.0,10.0,1.0,10000.0,0.0,21000.0,31.0
,,,,,,,,,,,,,,,,,,,,,,,07-09-2022,F463,2022-09-07_08h27.03.548,tareaTDv3,2020.2.5,Win32,60,,,right,1.0,4.1665,0.0,6.0,6.0,52.0,1.0,5000.0,0.0,56000.0,89.0
,,,,,,,,,,,,,,,,,,,,,,,07-09-2022,F463,2022-09-07_08h27.03.548,tareaTDv3,2020.2.5,Win32,60,,,left,1.0,7.9216,0.0,7.0,7.0,4.0,1.0,10000.0,0.0,150000.0,5.0
,,,,,,,,,,,,,,,,,,,,,,,07-09-2022,F463,2022-09-07_08h27.03.548,tareaTDv3,2020.2.5,Win32,60,,,left,1.0,3.7145,0.0,8.0,8.0,63.0,1.0,25000.0,0.0,125000.0,4.0
,,,,,,,,,,,,,,,,,,,,,,,07-09-2022,F463,2022-09-07_08h27.03.548,tareaTDv3,2020.2.5,Win32,60,,,left,1.0,5.5782,0.0,9.0,9.0,41.0,1.0,5000.0,0.0,35000.0,31.0
,,,,,,,,,,,,,,,,,,,,,,,07-09-2022,F463,2022-09-07_08h27.03.548,tareaTDv3,2020.2.5,Win32,60,,,right,1.0,4.9741,0.0,10.0,10.0,59.0,1.0,5000.0,0.0,151000.0,150.0
,,,,,,,,,,,,,,,,,,,,,,,07-09-2022,F463,2022-09-07_08h27.03.548,tareaTDv3,2020.2.5,Win32,60,,,left,1.0,4.6773,0.0,11.0,11.0,82.0,1.0,25000.0,0.0,75000.0,90.0
,,,,,,,,,,,,,,,,,,,,,,,07-09-2022,F463,2022-09-07_08h27.03.548,tareaTDv3,2020.2.5,Win32,60,,,right,0.0,3.7084,0.0,12.0,12.0,78.0,1.0,25000.0,0.0,125000.0,59.0
,,,,,,,,,,,,,,,,,,,,,,,07-09-2022,F463,2022-09-07_08h27.03.548,tareaTDv3,2020.2.5,Win32,60,,,right,0.0,7.4903,0.0,13.0,13.0,27.0,1.0,10000.0,0.0,61000.0,150.0
,,,,,,,,,,,,,,,,,,,,,,,07-09-2022,F463,2022-09-07_08h27.03.548,tareaTDv3,2020.2.5,Win32,60,,,right,1.0,3.6553,0.0,14.0,14.0,71.0,1.0,25000.0,0.0,55000.0,30.0
,,,,,,,,,,,,,,,,,,,,,,,07-09-2022,F463,2022-09-07_08h27.03.548,tareaTDv3,2020.2.5,Win32,60,,,left,1.0,1.5486,0.0,15.0,15.0,7.0,1.0,10000.0,0.0,59000.0,9.0
,,,,,,,,,,,,,,,,,,,,,,,07-09-2022,F463,2022-09-07_08h27.03.548,tareaTDv3,2020.2.5,Win32,60,,,left,1.0,4.0509,0.0,16.0,16.0,46.0,1.0,5000.0,0.0,36000.0,61.0
,,,,,,,,,,,,,,,,,,,,,,,07-09-2022,F463,2022-09-07_08h27.03.548,tareaTDv3,2020.2.5,Win32,60,,,right,1.0,4.4329,0.0,17.0,17.0,24.0,1.0,10000.0,0.0,149000.0,89.0
,,,,,,,,,,,,,,,,,,,,,,,07-09-2022,F463,2022-09-07_08h27.03.548,tareaTDv3,2020.2.5,Win32,60,,,right,1.0,2.0955,0.0,18.0,18.0,3.0,1.0,10000.0,0.0,109000.0,5.0
,,,,,,,,,,,,,,,,,,,,,,,07-09-2022,F463,2022-09-07_08h27.03.548,tareaTDv3,2020.2.5,Win32,60,,,right,1.0,1.1514,0.0,19.0,19.0,60.0,1.0,25000.0,0.0,35000.0,5.0
,,,,,,,,,,,,,,,,,,,,,,,07-09-2022,F463,2022-09-07_08h27.03.548,tareaTDv3,2020.2.5,Win32,60,,,right,0.0,5.3309,0.0,20.0,20.0,21.0,1.0,10000.0,0.0,40000.0,91.0
,,,,,,,,,,,,,,,,,,,,,,,07-09-2022,F463,2022-09-07_08h27.03.548,tareaTDv3,2020.2.5,Win32,60,,,right,0.0,4.549,0.0,21.0,21.0,88.0,1.0,25000.0,0.0,125000.0,149.0
,,,,,,,,,,,,,,,,,,,,,,,07-09-2022,F463,2022-09-07_08h27.03.548,tareaTDv3,2020.2.5,Win32,60,,,left,1.0,3.1473,0.0,22.0,22.0,17.0,1.0,10000.0,0.0,60000.0,60.0
,,,,,,,,,,,,,,,,,,,,,,,07-09-2022,F463,2022-09-07_08h27.03.548,tareaTDv3,2020.2.5,Win32,60,,,left,1.0,3.3652,0.0,23.0,23.0,33.0,1.0,5000.0,0.0,104000.0,5.0
,,,,,,,,,,,,,,,,,,,,,,,07-09-2022,F463,2022-09-07_08h27.03.548,tareaTDv3,2020.2.5,Win32,60,,,left,1.0,4.0851,0.0,24.0,24.0,74.0,1.0,25000.0,0.0,150000.0,29.0
,,,,,,,,,,,,,,,,,,,,,,,07-09-2022,F463,2022-09-07_08h27.03.548,tareaTDv3,2020.2.5,Win32,60,,,right,1.0,8.3019,0.0,25.0,25.0,22.0,1.0,10000.0,0.0,61000.0,89.0
,,,,,,,,,,,,,,,,,,,,,,,07-09-2022,F463,2022-09-07_08h27.03.548,tareaTDv3,2020.2.5,Win32,60,,,left,1.0,7.0516,0.0,26.0,26.0,58.0,1.0,5000.0,0.0,106000.0,152.0
,,,,,,,,,,,,,,,,,,,,,,,07-09-2022,F463,2022-09-07_08h27.03.548,tareaTDv3,2020.2.5,Win32,60,,,left,0.0,3.2802,0.0,27.0,27.0,89.0,1.0,25000.0,0.0,150000.0,150.0
,,,,,,,,,,,,,,,,,,,,,,,07-09-2022,F463,2022-09-07_08h27.03.548,tareaTDv3,2020.2.5,Win32,60,,,left,1.0,4.5964,0.0,28.0,28.0,36.0,1.0,5000.0,0.0,36000.0,9.0
,,,,,,,,,,,,,,,,,,,,,,,07-09-2022,F463,2022-09-07_08h27.03.548,tareaTDv3,2020.2.5,Win32,60,,,left,1.0,1.8343,0.0,29.0,29.0,69.0,1.0,25000.0,0.0,150000.0,9.0
,,,,,,,,,,,,,,,,,,,,,,,07-09-2022,F463,2022-09-07_08h27.03.548,tareaTDv3,2020.2.5,Win32,60,,,left,0.0,1.5319,0.0,30.0,30.0,29.0,1.0,10000.0,0.0,151000.0,151.0
,,,,,,,,,,,,,,,,,,,,,,,07-09-2022,F463,2022-09-07_08h27.03.548,tareaTDv3,2020.2.5,Win32,60,,,left,1.0,1.848,0.0,31.0,31.0,9.0,1.0,10000.0,0.0,151000.0,11.0
,,,,,,,,,,,,,,,,,,,,,,,07-09-2022,F463,2022-09-07_08h27.03.548,tareaTDv3,2020.2.5,Win32,60,,,left,1.0,5.2201,0.0,32.0,32.0,12.0,1.0,10000.0,0.0,60000.0,29.0
,,,,,,,,,,,,,,,,,,,,,,,07-09-2022,F463,2022-09-07_08h27.03.548,tareaTDv3,2020.2.5,Win32,60,,,right,1.0,2.7809,0.0,33.0,33.0,44.0,1.0,5000.0,0.0,150000.0,30.0
,,,,,,,,,,,,,,,,,,,,,,,07-09-2022,F463,2022-09-07_08h27.03.548,tareaTDv3,2020.2.5,Win32,60,,,left,1.0,2.7942,0.0,34.0,34.0,39.0,1.0,5000.0,0.0,149000.0,10.0
,,,,,,,,,,,,,,,,,,,,,,,07-09-2022,F463,2022-09-07_08h27.03.548,tareaTDv3,2020.2.5,Win32,60,,,left,0.0,1.7382,0.0,35.0,35.0,86.0,1.0,25000.0,0.0,55000.0,151.0
,,,,,,,,,,,,,,,,,,,,,,,07-09-2022,F463,2022-09-07_08h27.03.548,tareaTDv3,2020.2.5,Win32,60,,,right,1.0,10.203,0.0,36.0,36.0,8.0,1.0,10000.0,0.0,111000.0,10.0
,,,,,,,,,,,,,,,,,,,,,,,07-09-2022,F463,2022-09-07_08h27.03.548,tareaTDv3,2020.2.5,Win32,60,,,right,0.0,6.833,0.0,37.0,37.0,87.0,1.0,25000.0,0.0,75000.0,151.0
,,,,,,,,,,,,,,,,,,,,,,,07-09-2022,F463,2022-09-07_08h27.03.548,tareaTDv3,2020.2.5,Win32,60,,,right,1.0,2.6642,0.0,38.0,38.0,31.0,1.0,5000.0,0.0,35000.0,6.0
,,,,,,,,,,,,,,,,,,,,,,,07-09-2022,F463,2022-09-07_08h27.03.548,tareaTDv3,2020.2.5,Win32,60,,,left,1.0,5.2621,0.0,39.0,39.0,64.0,1.0,25000.0,0.0,150000.0,4.0
,,,,,,,,,,,,,,,,,,,,,,,07-09-2022,F463,2022-09-07_08h27.03.548,tareaTDv3,2020.2.5,Win32,60,,,right,0.0,1.2707,0.0,40.0,40.0,81.0,1.0,25000.0,0.0,55000.0,90.0
,,,,,,,,,,,,,,,,,,,,,,,07-09-2022,F463,2022-09-07_08h27.03.548,tareaTDv3,2020.2.5,Win32,60,,,right,0.0,2.4343,0.0,41.0,41.0,26.0,1.0,10000.0,0.0,39000.0,150.0
,,,,,,,,,,,,,,,,,,,,,,,07-09-2022,F463,2022-09-07_08h27.03.548,tareaTDv3,2020.2.5,Win32,60,,,left,1.0,3.8698,0.0,42.0,42.0,47.0,1.0,5000.0,0.0,56000.0,60.0
,,,,,,,,,,,,,,,,,,,,,,,07-09-2022,F463,2022-09-07_08h27.03.548,tareaTDv3,2020.2.5,Win32,60,,,right,0.0,4.0291,0.0,43.0,43.0,77.0,1.0,25000.0,0.0,75000.0,59.0
,,,,,,,,,,,,,,,,,,,,,,,07-09-2022,F463,2022-09-07_08h27.03.548,tareaTDv3,2020.2.5,Win32,60,,,left,1.0,3.5234,0.0,44.0,44.0,11.0,1.0,10000.0,0.0,39000.0,29.0
,,,,,,,,,,,,,,,,,,,,,,,07-09-2022,F463,2022-09-07_08h27.03.548,tareaTDv3,2020.2.5,Win32,60,,,right,0.0,2.0398,0.0,45.0,45.0,70.0,1.0,25000.0,0.0,35000.0,30.0
,,,,,,,,,,,,,,,,,,,,,,,07-09-2022,F463,2022-09-07_08h27.03.548,tareaTDv3,2020.2.5,Win32,60,,,right,1.0,1.7421,0.0,46.0,46.0,67.0,1.0,25000.0,0.0,75000.0,10.0
,,,,,,,,,,,,,,,,,,,,,,,07-09-2022,F463,2022-09-07_08h27.03.548,tareaTDv3,2020.2.5,Win32,60,,,left,1.0,1.3058,0.0,47.0,47.0,73.0,1.0,25000.0,0.0,125000.0,31.0
,,,,,,,,,,,,,,,,,,,,,,,07-09-2022,F463,2022-09-07_08h27.03.548,tareaTDv3,2020.2.5,Win32,60,,,left,1.0,3.0084,0.0,48.0,48.0,51.0,1.0,5000.0,0.0,35000.0,89.0
,,,,,,,,,,,,,,,,,,,,,,,07-09-2022,F463,2022-09-07_08h27.03.548,tareaTDv3,2020.2.5,Win32,60,,,left,1.0,2.0144,0.0,49.0,49.0,1.0,1.0,10000.0,0.0,39000.0,6.0
,,,,,,,,,,,,,,,,,,,,,,,07-09-2022,F463,2022-09-07_08h27.03.548,tareaTDv3,2020.2.5,Win32,60,,,right,1.0,2.1433,0.0,50.0,50.0,84.0,1.0,25000.0,0.0,150000.0,89.0
,,,,,,,,,,,,,,,,,,,,,,,07-09-2022,F463,2022-09-07_08h27.03.548,tareaTDv3,2020.2.5,Win32,60,,,right,1.0,4.2402,0.0,51.0,51.0,45.0,1.0,5000.0,0.0,15000.0,61.0
,,,,,,,,,,,,,,,,,,,,,,,07-09-2022,F463,2022-09-07_08h27.03.548,tareaTDv3,2020.2.5,Win32,60,,,right,0.0,2.8368,0.0,52.0,52.0,56.0,1.0,5000.0,0.0,35000.0,150.0
,,,,,,,,,,,,,,,,,,,,,,,07-09-2022,F463,2022-09-07_08h27.03.548,tareaTDv3,2020.2.5,Win32,60,,,right,1.0,1.5869,0.0,53.0,53.0,66.0,1.0,25000.0,0.0,55000.0,11.0
,,,,,,,,,,,,,,,,,,,,,,,07-09-2022,F463,2022-09-07_08h27.03.548,tareaTDv3,2020.2.5,Win32,60,,,right,1.0,1.9908,0.0,54.0,54.0,42.0,1.0,5000.0,0.0,56000.0,29.0
,,,,,,,,,,,,,,,,,,,,,,,07-09-2022,F463,2022-09-07_08h27.03.548,tareaTDv3,2020.2.5,Win32,60,,,right,1.0,1.1752,0.0,55.0,55.0,0.0,1.0,10000.0,0.0,20000.0,5.0
,,,,,,,,,,,,,,,,,,,,,,,07-09-2022,F463,2022-09-07_08h27.03.548,tareaTDv3,2020.2.5,Win32,60,,,right,1.0,2.1096,0.0,56.0,56.0,43.0,1.0,5000.0,0.0,106000.0,29.0
,,,,,,,,,,,,,,,,,,,,,,,07-09-2022,F463,2022-09-07_08h27.03.548,tareaTDv3,2020.2.5,Win32,60,,,left,0.0,4.2713,0.0,57.0,57.0,85.0,1.0,25000.0,0.0,35000.0,150.0
,,,,,,,,,,,,,,,,,,,,,,,07-09-2022,F463,2022-09-07_08h27.03.548,tareaTDv3,2020.2.5,Win32,60,,,left,1.0,2.0653,0.0,58.0,58.0,35.0,1.0,5000.0,0.0,15000.0,11.0
,,,,,,,,,,,,,,,,,,,,,,,07-09-2022,F463,2022-09-07_08h27.03.548,tareaTDv3,2020.2.5,Win32,60,,,left,1.0,3.3781,0.0,59.0,59.0,80.0,1.0,25000.0,0.0,35000.0,90.0
,,,,,,,,,,,,,,,,,,,,,,,07-09-2022,F463,2022-09-07_08h27.03.548,tareaTDv3,2020.2.5,Win32,60,,,left,1.0,4.7864,0.0,60.0,60.0,13.0,1.0,10000.0,0.0,111000.0,30.0
,,,,,,,,,,,,,,,,,,,,,,,07-09-2022,F463,2022-09-07_08h27.03.548,tareaTDv3,2020.2.5,Win32,60,,,right,1.0,1.6549,0.0,61.0,61.0,72.0,1.0,25000.0,0.0,75000.0,31.0
,,,,,,,,,,,,,,,,,,,,,,,07-09-2022,F463,2022-09-07_08h27.03.548,tareaTDv3,2020.2.5,Win32,60,,,right,1.0,1.8912,0.0,62.0,62.0,2.0,1.0,10000.0,0.0,61000.0,4.0
,,,,,,,,,,,,,,,,,,,,,,,07-09-2022,F463,2022-09-07_08h27.03.548,tareaTDv3,2020.2.5,Win32,60,,,right,1.0,4.5401,0.0,63.0,63.0,19.0,1.0,10000.0,0.0,149000.0,61.0
,,,,,,,,,,,,,,,,,,,,,,,07-09-2022,F463,2022-09-07_08h27.03.548,tareaTDv3,2020.2.5,Win32,60,,,left,0.0,4.9566,0.0,64.0,64.0,28.0,1.0,10000.0,0.0,109000.0,149.0
,,,,,,,,,,,,,,,,,,,,,,,07-09-2022,F463,2022-09-07_08h27.03.548,tareaTDv3,2020.2.5,Win32,60,,,right,1.0,2.2783,0.0,65.0,65.0,14.0,1.0,10000.0,0.0,150000.0,30.0
,,,,,,,,,,,,,,,,,,,,,,,07-09-2022,F463,2022-09-07_08h27.03.548,tareaTDv3,2020.2.5,Win32,60,,,left,1.0,8.6788,0.0,66.0,66.0,76.0,1.0,25000.0,0.0,55000.0,60.0
,,,,,,,,,,,,,,,,,,,,,,,07-09-2022,F463,2022-09-07_08h27.03.548,tareaTDv3,2020.2.5,Win32,60,,,right,0.0,3.5084,0.0,67.0,67.0,40.0,1.0,5000.0,0.0,14000.0,31.0
,,,,,,,,,,,,,,,,,,,,,,,07-09-2022,F463,2022-09-07_08h27.03.548,tareaTDv3,2020.2.5,Win32,60,,,right,1.0,3.7373,0.0,68.0,68.0,6.0,1.0,10000.0,0.0,40000.0,10.0
,,,,,,,,,,,,,,,,,,,,,,,07-09-2022,F463,2022-09-07_08h27.03.548,tareaTDv3,2020.2.5,Win32,60,,,right,0.0,8.2904,0.0,69.0,69.0,55.0,1.0,5000.0,0.0,14000.0,149.0
,,,,,,,,,,,,,,,,,,,,,,,07-09-2022,F463,2022-09-07_08h27.03.548,tareaTDv3,2020.2.5,Win32,60,,,right,1.0,1.5001,0.0,70.0,70.0,65.0,1.0,25000.0,0.0,35000.0,11.0
,,,,,,,,,,,,,,,,,,,,,,,07-09-2022,F463,2022-09-07_08h27.03.548,tareaTDv3,2020.2.5,Win32,60,,,right,0.0,5.6094,0.0,71.0,71.0,79.0,1.0,25000.0,0.0,150000.0,61.0
,,,,,,,,,,,,,,,,,,,,,,,07-09-2022,F463,2022-09-07_08h27.03.548,tareaTDv3,2020.2.5,Win32,60,,,right,0.0,4.4025,0.0,72.0,72.0,16.0,1.0,10000.0,0.0,39000.0,59.0
,,,,,,,,,,,,,,,,,,,,,,,07-09-2022,F463,2022-09-07_08h27.03.548,tareaTDv3,2020.2.5,Win32,60,,,right,1.0,2.7191,0.0,73.0,73.0,38.0,1.0,5000.0,0.0,104000.0,10.0
,,,,,,,,,,,,,,,,,,,,,,,07-09-2022,F463,2022-09-07_08h27.03.548,tareaTDv3,2020.2.5,Win32,60,,,right,1.0,9.6177,0.0,74.0,74.0,18.0,1.0,10000.0,0.0,110000.0,60.0
,,,,,,,,,,,,,,,,,,,,,,,07-09-2022,F463,2022-09-07_08h27.03.548,tareaTDv3,2020.2.5,Win32,60,,,right,0.0,6.8654,0.0,75.0,75.0,50.0,1.0,5000.0,0.0,15000.0,91.0
,,,,,,,,,,,,,,,,,,,,,,,07-09-2022,F463,2022-09-07_08h27.03.548,tareaTDv3,2020.2.5,Win32,60,,,left,1.0,5.7493,0.0,76.0,76.0,61.0,1.0,25000.0,0.0,55000.0,6.0
,,,,,,,,,,,,,,,,,,,,,,,07-09-2022,F463,2022-09-07_08h27.03.548,tareaTDv3,2020.2.5,Win32,60,,,right,0.0,3.2079,0.0,77.0,77.0,15.0,1.0,10000.0,0.0,20000.0,59.0
,,,,,,,,,,,,,,,,,,,,,,,07-09-2022,F463,2022-09-07_08h27.03.548,tareaTDv3,2020.2.5,Win32,60,,,right,1.0,4.666,0.0,78.0,78.0,5.0,1.0,10000.0,0.0,19000.0,11.0
,,,,,,,,,,,,,,,,,,,,,,,07-09-2022,F463,2022-09-07_08h27.03.548,tareaTDv3,2020.2.5,Win32,60,,,right,1.0,2.4484,0.0,79.0,79.0,32.0,1.0,5000.0,0.0,54000.0,5.0
,,,,,,,,,,,,,,,,,,,,,,,07-09-2022,F463,2022-09-07_08h27.03.548,tareaTDv3,2020.2.5,Win32,60,,,left,1.0,1.1615,0.0,80.0,80.0,68.0,1.0,25000.0,0.0,125000.0,9.0
,,,,,,,,,,,,,,,,,,,,,,,07-09-2022,F463,2022-09-07_08h27.03.548,tareaTDv3,2020.2.5,Win32,60,,,left,1.0,1.0972,0.0,81.0,81.0,34.0,1.0,5000.0,0.0,151000.0,4.0
,,,,,,,,,,,,,,,,,,,,,,,07-09-2022,F463,2022-09-07_08h27.03.548,tareaTDv3,2020.2.5,Win32,60,,,right,0.0,4.3889,0.0,82.0,82.0,25.0,1.0,10000.0,0.0,10000.0,150.0
,,,,,,,,,,,,,,,,,,,,,,,07-09-2022,F463,2022-09-07_08h27.03.548,tareaTDv3,2020.2.5,Win32,60,,,left,0.0,15.4082,0.0,83.0,83.0,57.0,1.0,5000.0,0.0,55000.0,151.0
,,,,,,,,,,,,,,,,,,,,,,,07-09-2022,F463,2022-09-07_08h27.03.548,tareaTDv3,2020.2.5,Win32,60,,,right,0.0,5.6046,0.0,84.0,84.0,75.0,1.0,25000.0,0.0,35000.0,60.0
,,,,,,,,,,,,,,,,,,,,,,,07-09-2022,F463,2022-09-07_08h27.03.548,tareaTDv3,2020.2.5,Win32,60,,,left,1.0,2.64,0.0,85.0,85.0,23.0,1.0,10000.0,0.0,110000.0,90.0
,,,,,,,,,,,,,,,,,,,,,,,07-09-2022,F463,2022-09-07_08h27.03.548,tareaTDv3,2020.2.5,Win32,60,,,left,1.0,3.7726,0.0,86.0,86.0,54.0,1.0,5000.0,0.0,150000.0,90.0
,,,,,,,,,,,,,,,,,,,,,,,07-09-2022,F463,2022-09-07_08h27.03.548,tareaTDv3,2020.2.5,Win32,60,,,right,1.0,1.1225,0.0,87.0,87.0,30.0,1.0,5000.0,0.0,16000.0,4.0
,,,,,,,,,,,,,,,,,,,,,,,07-09-2022,F463,2022-09-07_08h27.03.548,tareaTDv3,2020.2.5,Win32,60,,,left,1.0,0.9663,0.0,88.0,88.0,53.0,1.0,5000.0,0.0,104000.0,90.0
,,,,,,,,,,,,,,,,,,,,,,,07-09-2022,F463,2022-09-07_08h27.03.548,tareaTDv3,2020.2.5,Win32,60,,,right,1.0,2.5056,0.0,89.0,89.0,62.0,1.0,25000.0,0.0,75000.0,5.0
