key1.keys,key1.rt,key2.keys,key2.rt,key2_2.keys,key2_2.rt,key2_3.keys,key2_3.rt,key3.keys,key3.rt,key4.keys,key4.rt,respP.keys,respP.corr,respP.rt,Practice.thisRepN,Practice.thisTrialN,Practice.thisN,Practice.thisIndex,Practice.ran,ssAmount,llAmount,llDelay,session,participant,date,expName,psychopyVersion,OS,frameRate,key5.keys,key5.rt,respT.keys,respT.corr,respT.rt,trials.thisRepN,trials.thisTrialN,trials.thisN,trials.thisIndex,trials.ran,ss_am,ss_del,ll_am,ll_del
space,3.03,space,19.7344,space,16.7119,space,10.3137,right,30.2665,space,3.9345,left,0.0,8.887,0.0,0.0,0.0,1.0,1.0,25000.0,35000.0,150.0,7-09-22,F488,2022-09-07_09h10.32.008,tareaTDv3,2020.2.5,Win32,60,,,,,,,,,,,,,,
,,,,,,,,,,,,left,0.0,9.2636,0.0,1.0,1.0,2.0,1.0,10000.0,19000.0,89.0,7-09-22,F488,2022-09-07_09h10.32.008,tareaTDv3,2020.2.5,Win32,60,,,,,,,,,,,,,,
,,,,,,,,,,,,right,1.0,6.3198,0.0,2.0,2.0,0.0,1.0,10000.0,109000.0,9.0,7-09-22,F488,2022-09-07_09h10.32.008,tareaTDv3,2020.2.5,Win32,60,,,,,,,,,,,,,,
,,,,,,,,,,,,,,,,,,,,,,,7-09-22,F488,2022-09-07_09h10.32.008,tareaTDv3,2020.2.5,Win32,60,g,24.1752,right,0.0,5.5834,0.0,0.0,0.0,25.0,1.0,10000.0,0.0,10000.0,150.0
,,,,,,,,,,,,,,,,,,,,,,,7-09-22,F488,2022-09-07_09h10.32.008,tareaTDv3,2020.2.5,Win32,60,,,right,1.0,14.515,0.0,1.0,1.0,9.0,1.0,10000.0,0.0,151000.0,11.0
,,,,,,,,,,,,,,,,,,,,,,,7-09-22,F488,2022-09-07_09h10.32.008,tareaTDv3,2020.2.5,Win32,60,,,right,0.0,14.475,0.0,2.0,2.0,45.0,1.0,5000.0,0.0,15000.0,61.0
,,,,,,,,,,,,,,,,,,,,,,,7-09-22,F488,2022-09-07_09h10.32.008,tareaTDv3,2020.2.5,Win32,60,,,right,1.0,4.1193,0.0,3.0,3.0,24.0,1.0,10000.0,0.0,149000.0,89.0
,,,,,,,,,,,,,,,,,,,,,,,7-09-22,F488,2022-09-07_09h10.32.008,tareaTDv3,2020.2.5,Win32,60,,,left,1.0,5.7067,0.0,4.0,4.0,37.0,1.0,5000.0,0.0,56000.0,9.0
,,,,,,,,,,,,,,,,,,,,,,,7-09-22,F488,2022-09-07_09h10.32.008,tareaTDv3,2020.2.5,Win32,60,,,right,1.0,4.8654,0.0,5.0,5.0,33.0,1.0,5000.0,0.0,104000.0,5.0
,,,,,,,,,,,,,,,,,,,,,,,7-09-22,F488,2022-09-07_09h10.32.008,tareaTDv3,2020.2.5,Win32,60,,,right,1.0,7.2142,0.0,6.0,6.0,56.0,1.0,5000.0,0.0,35000.0,150.0
,,,,,,,,,,,,,,,,,,,,,,,7-09-22,F488,2022-09-07_09h10.32.008,tareaTDv3,2020.2.5,Win32,60,,,right,0.0,11.0996,0.0,7.0,7.0,35.0,1.0,5000.0,0.0,15000.0,11.0
,,,,,,,,,,,,,,,,,,,,,,,7-09-22,F488,2022-09-07_09h10.32.008,tareaTDv3,2020.2.5,Win32,60,,,right,0.0,2.4831,0.0,8.0,8.0,51.0,1.0,5000.0,0.0,35000.0,89.0
,,,,,,,,,,,,,,,,,,,,,,,7-09-22,F488,2022-09-07_09h10.32.008,tareaTDv3,2020.2.5,Win32,60,,,left,0.0,3.466,0.0,9.0,9.0,85.0,1.0,25000.0,0.0,35000.0,150.0
,,,,,,,,,,,,,,,,,,,,,,,7-09-22,F488,2022-09-07_09h10.32.008,tareaTDv3,2020.2.5,Win32,60,,,right,1.0,4.3338,0.0,10.0,10.0,44.0,1.0,5000.0,0.0,150000.0,30.0
,,,,,,,,,,,,,,,,,,,,,,,7-09-22,F488,2022-09-07_09h10.32.008,tareaTDv3,2020.2.5,Win32,60,,,left,1.0,6.4061,0.0,11.0,11.0,69.0,1.0,25000.0,0.0,150000.0,9.0
,,,,,,,,,,,,,,,,,,,,,,,7-09-22,F488,2022-09-07_09h10.32.008,tareaTDv3,2020.2.5,Win32,60,,,right,0.0,7.1054,0.0,12.0,12.0,55.0,1.0,5000.0,0.0,14000.0,149.0
,,,,,,,,,,,,,,,,,,,,,,,7-09-22,F488,2022-09-07_09h10.32.008,tareaTDv3,2020.2.5,Win32,60,,,right,1.0,4.0841,0.0,13.0,13.0,64.0,1.0,25000.0,0.0,150000.0,4.0
,,,,,,,,,,,,,,,,,,,,,,,7-09-22,F488,2022-09-07_09h10.32.008,tareaTDv3,2020.2.5,Win32,60,,,left,0.0,4.3547,0.0,14.0,14.0,5.0,1.0,10000.0,0.0,19000.0,11.0
,,,,,,,,,,,,,,,,,,,,,,,7-09-22,F488,2022-09-07_09h10.32.008,tareaTDv3,2020.2.5,Win32,60,,,right,0.0,2.9418,0.0,15.0,15.0,10.0,1.0,10000.0,0.0,21000.0,31.0
,,,,,,,,,,,,,,,,,,,,,,,7-09-22,F488,2022-09-07_09h10.32.008,tareaTDv3,2020.2.5,Win32,60,,,right,1.0,7.9029,0.0,16.0,16.0,43.0,1.0,5000.0,0.0,106000.0,29.0
,,,,,,,,,,,,,,,,,,,,,,,7-09-22,F488,2022-09-07_09h10.32.008,tareaTDv3,2020.2.5,Win32,60,,,right,1.0,4.5486,0.0,17.0,17.0,18.0,1.0,10000.0,0.0,110000.0,60.0
,,,,,,,,,,,,,,,,,,,,,,,7-09-22,F488,2022-09-07_09h10.32.008,tareaTDv3,2020.2.5,Win32,60,,,left,1.0,3.4022,0.0,18.0,18.0,3.0,1.0,10000.0,0.0,109000.0,5.0
,,,,,,,,,,,,,,,,,,,,,,,7-09-22,F488,2022-09-07_09h10.32.008,tareaTDv3,2020.2.5,Win32,60,,,right,1.0,3.7825,0.0,19.0,19.0,34.0,1.0,5000.0,0.0,151000.0,4.0
,,,,,,,,,,,,,,,,,,,,,,,7-09-22,F488,2022-09-07_09h10.32.008,tareaTDv3,2020.2.5,Win32,60,,,right,0.0,9.5975,0.0,20.0,20.0,88.0,1.0,25000.0,0.0,125000.0,149.0
,,,,,,,,,,,,,,,,,,,,,,,7-09-22,F488,2022-09-07_09h10.32.008,tareaTDv3,2020.2.5,Win32,60,,,left,0.0,6.365,0.0,21.0,21.0,26.0,1.0,10000.0,0.0,39000.0,150.0
,,,,,,,,,,,,,,,,,,,,,,,7-09-22,F488,2022-09-07_09h10.32.008,tareaTDv3,2020.2.5,Win32,60,,,left,0.0,9.4582,0.0,22.0,22.0,20.0,1.0,10000.0,0.0,20000.0,90.0
,,,,,,,,,,,,,,,,,,,,,,,7-09-22,F488,2022-09-07_09h10.32.008,tareaTDv3,2020.2.5,Win32,60,,,right,0.0,3.3501,0.0,23.0,23.0,70.0,1.0,25000.0,0.0,35000.0,30.0
,,,,,,,,,,,,,,,,,,,,,,,7-09-22,F488,2022-09-07_09h10.32.008,tareaTDv3,2020.2.5,Win32,60,,,right,1.0,3.6997,0.0,24.0,24.0,49.0,1.0,5000.0,0.0,149000.0,59.0
,,,,,,,,,,,,,,,,,,,,,,,7-09-22,F488,2022-09-07_09h10.32.008,tareaTDv3,2020.2.5,Win32,60,,,right,1.0,8.6518,0.0,25.0,25.0,42.0,1.0,5000.0,0.0,56000.0,29.0
,,,,,,,,,,,,,,,,,,,,,,,7-09-22,F488,2022-09-07_09h10.32.008,tareaTDv3,2020.2.5,Win32,60,,,left,1.0,8.9832,0.0,26.0,26.0,72.0,1.0,25000.0,0.0,75000.0,31.0
,,,,,,,,,,,,,,,,,,,,,,,7-09-22,F488,2022-09-07_09h10.32.008,tareaTDv3,2020.2.5,Win32,60,,,left,0.0,8.2919,0.0,27.0,27.0,16.0,1.0,10000.0,0.0,39000.0,59.0
,,,,,,,,,,,,,,,,,,,,,,,7-09-22,F488,2022-09-07_09h10.32.008,tareaTDv3,2020.2.5,Win32,60,,,left,1.0,6.7931,0.0,28.0,28.0,48.0,1.0,5000.0,0.0,105000.0,60.0
,,,,,,,,,,,,,,,,,,,,,,,7-09-22,F488,2022-09-07_09h10.32.008,tareaTDv3,2020.2.5,Win32,60,,,left,1.0,5.2203,0.0,29.0,29.0,14.0,1.0,10000.0,0.0,150000.0,30.0
,,,,,,,,,,,,,,,,,,,,,,,7-09-22,F488,2022-09-07_09h10.32.008,tareaTDv3,2020.2.5,Win32,60,,,right,1.0,6.625,0.0,30.0,30.0,4.0,1.0,10000.0,0.0,150000.0,5.0
,,,,,,,,,,,,,,,,,,,,,,,7-09-22,F488,2022-09-07_09h10.32.008,tareaTDv3,2020.2.5,Win32,60,,,right,0.0,4.3534,0.0,31.0,31.0,87.0,1.0,25000.0,0.0,75000.0,151.0
,,,,,,,,,,,,,,,,,,,,,,,7-09-22,F488,2022-09-07_09h10.32.008,tareaTDv3,2020.2.5,Win32,60,,,right,1.0,5.921,0.0,32.0,32.0,6.0,1.0,10000.0,0.0,40000.0,10.0
,,,,,,,,,,,,,,,,,,,,,,,7-09-22,F488,2022-09-07_09h10.32.008,tareaTDv3,2020.2.5,Win32,60,,,left,1.0,12.0028,0.0,33.0,33.0,62.0,1.0,25000.0,0.0,75000.0,5.0
,,,,,,,,,,,,,,,,,,,,,,,7-09-22,F488,2022-09-07_09h10.32.008,tareaTDv3,2020.2.5,Win32,60,,,left,0.0,10.5803,0.0,34.0,34.0,65.0,1.0,25000.0,0.0,35000.0,11.0
,,,,,,,,,,,,,,,,,,,,,,,7-09-22,F488,2022-09-07_09h10.32.008,tareaTDv3,2020.2.5,Win32,60,,,left,1.0,7.7839,0.0,35.0,35.0,1.0,1.0,10000.0,0.0,39000.0,6.0
,,,,,,,,,,,,,,,,,,,,,,,7-09-22,F488,2022-09-07_09h10.32.008,tareaTDv3,2020.2.5,Win32,60,,,right,1.0,8.2389,0.0,36.0,36.0,27.0,1.0,10000.0,0.0,61000.0,150.0
,,,,,,,,,,,,,,,,,,,,,,,7-09-22,F488,2022-09-07_09h10.32.008,tareaTDv3,2020.2.5,Win32,60,,,left,1.0,2.8833,0.0,37.0,37.0,63.0,1.0,25000.0,0.0,125000.0,4.0
,,,,,,,,,,,,,,,,,,,,,,,7-09-22,F488,2022-09-07_09h10.32.008,tareaTDv3,2020.2.5,Win32,60,,,right,1.0,7.898,0.0,38.0,38.0,78.0,1.0,25000.0,0.0,125000.0,59.0
,,,,,,,,,,,,,,,,,,,,,,,7-09-22,F488,2022-09-07_09h10.32.008,tareaTDv3,2020.2.5,Win32,60,,,left,1.0,9.3168,0.0,39.0,39.0,58.0,1.0,5000.0,0.0,106000.0,152.0
,,,,,,,,,,,,,,,,,,,,,,,7-09-22,F488,2022-09-07_09h10.32.008,tareaTDv3,2020.2.5,Win32,60,,,right,1.0,2.5592,0.0,40.0,40.0,52.0,1.0,5000.0,0.0,56000.0,89.0
,,,,,,,,,,,,,,,,,,,,,,,7-09-22,F488,2022-09-07_09h10.32.008,tareaTDv3,2020.2.5,Win32,60,,,left,0.0,1.8998,0.0,41.0,41.0,22.0,1.0,10000.0,0.0,61000.0,89.0
,,,,,,,,,,,,,,,,,,,,,,,7-09-22,F488,2022-09-07_09h10.32.008,tareaTDv3,2020.2.5,Win32,60,,,right,1.0,5.2248,0.0,42.0,42.0,50.0,1.0,5000.0,0.0,15000.0,91.0
,,,,,,,,,,,,,,,,,,,,,,,7-09-22,F488,2022-09-07_09h10.32.008,tareaTDv3,2020.2.5,Win32,60,,,right,1.0,6.2678,0.0,43.0,43.0,84.0,1.0,25000.0,0.0,150000.0,89.0
,,,,,,,,,,,,,,,,,,,,,,,7-09-22,F488,2022-09-07_09h10.32.008,tareaTDv3,2020.2.5,Win32,60,,,left,1.0,5.2827,0.0,44.0,44.0,17.0,1.0,10000.0,0.0,60000.0,60.0
,,,,,,,,,,,,,,,,,,,,,,,7-09-22,F488,2022-09-07_09h10.32.008,tareaTDv3,2020.2.5,Win32,60,,,left,0.0,8.9214,0.0,45.0,45.0,28.0,1.0,10000.0,0.0,109000.0,149.0
,,,,,,,,,,,,,,,,,,,,,,,7-09-22,F488,2022-09-07_09h10.32.008,tareaTDv3,2020.2.5,Win32,60,,,left,0.0,1.6515,0.0,46.0,46.0,53.0,1.0,5000.0,0.0,104000.0,90.0
,,,,,,,,,,,,,,,,,,,,,,,7-09-22,F488,2022-09-07_09h10.32.008,tareaTDv3,2020.2.5,Win32,60,,,left,1.0,7.5414,0.0,47.0,47.0,19.0,1.0,10000.0,0.0,149000.0,61.0
,,,,,,,,,,,,,,,,,,,,,,,7-09-22,F488,2022-09-07_09h10.32.008,tareaTDv3,2020.2.5,Win32,60,,,,0.0,,0.0,48.0,48.0,67.0,1.0,25000.0,0.0,75000.0,10.0
,,,,,,,,,,,,,,,,,,,,,,,7-09-22,F488,2022-09-07_09h10.32.008,tareaTDv3,2020.2.5,Win32,60,,,right,1.0,7.8481,0.0,49.0,49.0,39.0,1.0,5000.0,0.0,149000.0,10.0
,,,,,,,,,,,,,,,,,,,,,,,7-09-22,F488,2022-09-07_09h10.32.008,tareaTDv3,2020.2.5,Win32,60,,,right,1.0,1.4246,0.0,50.0,50.0,12.0,1.0,10000.0,0.0,60000.0,29.0
,,,,,,,,,,,,,,,,,,,,,,,7-09-22,F488,2022-09-07_09h10.32.008,tareaTDv3,2020.2.5,Win32,60,,,left,1.0,1.5502,0.0,51.0,51.0,38.0,1.0,5000.0,0.0,104000.0,10.0
,,,,,,,,,,,,,,,,,,,,,,,7-09-22,F488,2022-09-07_09h10.32.008,tareaTDv3,2020.2.5,Win32,60,,,left,0.0,4.4331,0.0,52.0,52.0,0.0,1.0,10000.0,0.0,20000.0,5.0
,,,,,,,,,,,,,,,,,,,,,,,7-09-22,F488,2022-09-07_09h10.32.008,tareaTDv3,2020.2.5,Win32,60,,,right,0.0,4.2246,0.0,53.0,53.0,15.0,1.0,10000.0,0.0,20000.0,59.0
,,,,,,,,,,,,,,,,,,,,,,,7-09-22,F488,2022-09-07_09h10.32.008,tareaTDv3,2020.2.5,Win32,60,,,right,0.0,3.8586,0.0,54.0,54.0,86.0,1.0,25000.0,0.0,55000.0,151.0
,,,,,,,,,,,,,,,,,,,,,,,7-09-22,F488,2022-09-07_09h10.32.008,tareaTDv3,2020.2.5,Win32,60,,,left,1.0,4.0825,0.0,55.0,55.0,76.0,1.0,25000.0,0.0,55000.0,60.0
,,,,,,,,,,,,,,,,,,,,,,,7-09-22,F488,2022-09-07_09h10.32.008,tareaTDv3,2020.2.5,Win32,60,,,right,1.0,2.9494,0.0,56.0,56.0,8.0,1.0,10000.0,0.0,111000.0,10.0
,,,,,,,,,,,,,,,,,,,,,,,7-09-22,F488,2022-09-07_09h10.32.008,tareaTDv3,2020.2.5,Win32,60,,,left,1.0,6.2895,0.0,57.0,57.0,47.0,1.0,5000.0,0.0,56000.0,60.0
,,,,,,,,,,,,,,,,,,,,,,,7-09-22,F488,2022-09-07_09h10.32.008,tareaTDv3,2020.2.5,Win32,60,,,right,0.0,2.3619,0.0,58.0,58.0,80.0,1.0,25000.0,0.0,35000.0,90.0
,,,,,,,,,,,,,,,,,,,,,,,7-09-22,F488,2022-09-07_09h10.32.008,tareaTDv3,2020.2.5,Win32,60,,,right,1.0,0.8953,0.0,59.0,59.0,30.0,1.0,5000.0,0.0,16000.0,4.0
,,,,,,,,,,,,,,,,,,,,,,,7-09-22,F488,2022-09-07_09h10.32.008,tareaTDv3,2020.2.5,Win32,60,,,left,0.0,4.0375,0.0,60.0,60.0,57.0,1.0,5000.0,0.0,55000.0,151.0
,,,,,,,,,,,,,,,,,,,,,,,7-09-22,F488,2022-09-07_09h10.32.008,tareaTDv3,2020.2.5,Win32,60,,,left,1.0,1.8165,0.0,61.0,61.0,29.0,1.0,10000.0,0.0,151000.0,151.0
,,,,,,,,,,,,,,,,,,,,,,,7-09-22,F488,2022-09-07_09h10.32.008,tareaTDv3,2020.2.5,Win32,60,,,right,1.0,2.6495,0.0,62.0,62.0,74.0,1.0,25000.0,0.0,150000.0,29.0
,,,,,,,,,,,,,,,,,,,,,,,7-09-22,F488,2022-09-07_09h10.32.008,tareaTDv3,2020.2.5,Win32,60,,,right,0.0,2.5185,0.0,63.0,63.0,83.0,1.0,25000.0,0.0,125000.0,89.0
,,,,,,,,,,,,,,,,,,,,,,,7-09-22,F488,2022-09-07_09h10.32.008,tareaTDv3,2020.2.5,Win32,60,,,right,1.0,4.1692,0.0,64.0,64.0,54.0,1.0,5000.0,0.0,150000.0,90.0
,,,,,,,,,,,,,,,,,,,,,,,7-09-22,F488,2022-09-07_09h10.32.008,tareaTDv3,2020.2.5,Win32,60,,,left,1.0,6.3482,0.0,65.0,65.0,11.0,1.0,10000.0,0.0,39000.0,29.0
,,,,,,,,,,,,,,,,,,,,,,,7-09-22,F488,2022-09-07_09h10.32.008,tareaTDv3,2020.2.5,Win32,60,,,right,0.0,5.6855,0.0,66.0,66.0,81.0,1.0,25000.0,0.0,55000.0,90.0
,,,,,,,,,,,,,,,,,,,,,,,7-09-22,F488,2022-09-07_09h10.32.008,tareaTDv3,2020.2.5,Win32,60,,,right,1.0,7.0174,0.0,67.0,67.0,31.0,1.0,5000.0,0.0,35000.0,6.0
,,,,,,,,,,,,,,,,,,,,,,,7-09-22,F488,2022-09-07_09h10.32.008,tareaTDv3,2020.2.5,Win32,60,,,left,1.0,4.6369,0.0,68.0,68.0,40.0,1.0,5000.0,0.0,14000.0,31.0
,,,,,,,,,,,,,,,,,,,,,,,7-09-22,F488,2022-09-07_09h10.32.008,tareaTDv3,2020.2.5,Win32,60,,,left,0.0,2.855,0.0,69.0,69.0,41.0,1.0,5000.0,0.0,35000.0,31.0
,,,,,,,,,,,,,,,,,,,,,,,7-09-22,F488,2022-09-07_09h10.32.008,tareaTDv3,2020.2.5,Win32,60,,,,0.0,,0.0,70.0,70.0,73.0,1.0,25000.0,0.0,125000.0,31.0
,,,,,,,,,,,,,,,,,,,,,,,7-09-22,F488,2022-09-07_09h10.32.008,tareaTDv3,2020.2.5,Win32,60,,,left,1.0,1.1863,0.0,71.0,71.0,36.0,1.0,5000.0,0.0,36000.0,9.0
,,,,,,,,,,,,,,,,,,,,,,,7-09-22,F488,2022-09-07_09h10.32.008,tareaTDv3,2020.2.5,Win32,60,,,left,1.0,7.1845,0.0,72.0,72.0,59.0,1.0,5000.0,0.0,151000.0,150.0
,,,,,,,,,,,,,,,,,,,,,,,7-09-22,F488,2022-09-07_09h10.32.008,tareaTDv3,2020.2.5,Win32,60,,,left,0.0,5.1081,0.0,73.0,73.0,77.0,1.0,25000.0,0.0,75000.0,59.0
,,,,,,,,,,,,,,,,,,,,,,,7-09-22,F488,2022-09-07_09h10.32.008,tareaTDv3,2020.2.5,Win32,60,,,left,1.0,5.6305,0.0,74.0,74.0,21.0,1.0,10000.0,0.0,40000.0,91.0
,,,,,,,,,,,,,,,,,,,,,,,7-09-22,F488,2022-09-07_09h10.32.008,tareaTDv3,2020.2.5,Win32,60,,,right,1.0,7.9414,0.0,75.0,75.0,66.0,1.0,25000.0,0.0,55000.0,11.0
,,,,,,,,,,,,,,,,,,,,,,,7-09-22,F488,2022-09-07_09h10.32.008,tareaTDv3,2020.2.5,Win32,60,,,left,0.0,9.1583,0.0,76.0,76.0,75.0,1.0,25000.0,0.0,35000.0,60.0
,,,,,,,,,,,,,,,,,,,,,,,7-09-22,F488,2022-09-07_09h10.32.008,tareaTDv3,2020.2.5,Win32,60,,,left,1.0,2.0748,0.0,77.0,77.0,71.0,1.0,25000.0,0.0,55000.0,30.0
,,,,,,,,,,,,,,,,,,,,,,,7-09-22,F488,2022-09-07_09h10.32.008,tareaTDv3,2020.2.5,Win32,60,,,left,1.0,4.977,0.0,78.0,78.0,60.0,1.0,25000.0,0.0,35000.0,5.0
,,,,,,,,,,,,,,,,,,,,,,,7-09-22,F488,2022-09-07_09h10.32.008,tareaTDv3,2020.2.5,Win32,60,,,left,1.0,7.589,0.0,79.0,79.0,79.0,1.0,25000.0,0.0,150000.0,61.0
,,,,,,,,,,,,,,,,,,,,,,,7-09-22,F488,2022-09-07_09h10.32.008,tareaTDv3,2020.2.5,Win32,60,,,left,1.0,1.916,0.0,80.0,80.0,2.0,1.0,10000.0,0.0,61000.0,4.0
,,,,,,,,,,,,,,,,,,,,,,,7-09-22,F488,2022-09-07_09h10.32.008,tareaTDv3,2020.2.5,Win32,60,,,left,1.0,2.6686,0.0,81.0,81.0,61.0,1.0,25000.0,0.0,55000.0,6.0
,,,,,,,,,,,,,,,,,,,,,,,7-09-22,F488,2022-09-07_09h10.32.008,tareaTDv3,2020.2.5,Win32,60,,,,0.0,,0.0,82.0,82.0,13.0,1.0,10000.0,0.0,111000.0,30.0
,,,,,,,,,,,,,,,,,,,,,,,7-09-22,F488,2022-09-07_09h10.32.008,tareaTDv3,2020.2.5,Win32,60,,,right,0.0,6.4993,0.0,83.0,83.0,46.0,1.0,5000.0,0.0,36000.0,61.0
,,,,,,,,,,,,,,,,,,,,,,,7-09-22,F488,2022-09-07_09h10.32.008,tareaTDv3,2020.2.5,Win32,60,,,right,1.0,1.9899,0.0,84.0,84.0,32.0,1.0,5000.0,0.0,54000.0,5.0
,,,,,,,,,,,,,,,,,,,,,,,7-09-22,F488,2022-09-07_09h10.32.008,tareaTDv3,2020.2.5,Win32,60,,,right,1.0,4.1406,0.0,85.0,85.0,7.0,1.0,10000.0,0.0,59000.0,9.0
,,,,,,,,,,,,,,,,,,,,,,,7-09-22,F488,2022-09-07_09h10.32.008,tareaTDv3,2020.2.5,Win32,60,,,right,1.0,1.2843,0.0,86.0,86.0,68.0,1.0,25000.0,0.0,125000.0,9.0
,,,,,,,,,,,,,,,,,,,,,,,7-09-22,F488,2022-09-07_09h10.32.008,tareaTDv3,2020.2.5,Win32,60,,,right,1.0,16.3455,0.0,87.0,87.0,82.0,1.0,25000.0,0.0,75000.0,90.0
,,,,,,,,,,,,,,,,,,,,,,,7-09-22,F488,2022-09-07_09h10.32.008,tareaTDv3,2020.2.5,Win32,60,,,left,1.0,5.3576,0.0,88.0,88.0,89.0,1.0,25000.0,0.0,150000.0,150.0
,,,,,,,,,,,,,,,,,,,,,,,7-09-22,F488,2022-09-07_09h10.32.008,tareaTDv3,2020.2.5,Win32,60,,,right,1.0,15.3892,0.0,89.0,89.0,23.0,1.0,10000.0,0.0,110000.0,90.0
