key1.keys,key1.rt,key2.keys,key2.rt,key2_2.keys,key2_2.rt,key2_3.keys,key2_3.rt,key3.keys,key3.rt,key4.keys,key4.rt,respP.keys,respP.corr,respP.rt,Practice.thisRepN,Practice.thisTrialN,Practice.thisN,Practice.thisIndex,Practice.ran,ssAmount,llAmount,llDelay,session,participant,date,expName,psychopyVersion,OS,frameRate,key5.keys,key5.rt,respT.keys,respT.corr,respT.rt,trials.thisRepN,trials.thisTrialN,trials.thisN,trials.thisIndex,trials.ran,ss_am,ss_del,ll_am,ll_del,key_resp_4.keys,key_resp_4.rt
space,18.147,space,18.3155,space,18.699,space,15.3492,right,7.5316,space,2.8165,right,0.0,17.4336,0.0,0.0,0.0,2.0,1.0,10000.0,19000.0,89.0,07/sep/22,f489,2022-09-07_09h23.15.546,tareaTDv3,2020.2.5,Win32,60,,,,,,,,,,,,,,,,
,,,,,,,,,,,,right,0.0,18.2555,0.0,1.0,1.0,1.0,1.0,25000.0,35000.0,150.0,07/sep/22,f489,2022-09-07_09h23.15.546,tareaTDv3,2020.2.5,Win32,60,,,,,,,,,,,,,,,,
,,,,,,,,,,,,left,0.0,7.0423,0.0,2.0,2.0,0.0,1.0,10000.0,109000.0,9.0,07/sep/22,f489,2022-09-07_09h23.15.546,tareaTDv3,2020.2.5,Win32,60,,,,,,,,,,,,,,,,
,,,,,,,,,,,,,,,,,,,,,,,07/sep/22,f489,2022-09-07_09h23.15.546,tareaTDv3,2020.2.5,Win32,60,g,11.5564,right,1.0,16.9863,0.0,0.0,0.0,73.0,1.0,25000.0,0.0,125000.0,31.0,,
,,,,,,,,,,,,,,,,,,,,,,,07/sep/22,f489,2022-09-07_09h23.15.546,tareaTDv3,2020.2.5,Win32,60,,,right,0.0,5.3229,0.0,1.0,1.0,86.0,1.0,25000.0,0.0,55000.0,151.0,,
,,,,,,,,,,,,,,,,,,,,,,,07/sep/22,f489,2022-09-07_09h23.15.546,tareaTDv3,2020.2.5,Win32,60,,,left,1.0,7.7378,0.0,2.0,2.0,78.0,1.0,25000.0,0.0,125000.0,59.0,,
,,,,,,,,,,,,,,,,,,,,,,,07/sep/22,f489,2022-09-07_09h23.15.546,tareaTDv3,2020.2.5,Win32,60,,,right,1.0,6.9489,0.0,3.0,3.0,39.0,1.0,5000.0,0.0,149000.0,10.0,,
,,,,,,,,,,,,,,,,,,,,,,,07/sep/22,f489,2022-09-07_09h23.15.546,tareaTDv3,2020.2.5,Win32,60,,,left,0.0,6.5167,0.0,4.0,4.0,10.0,1.0,10000.0,0.0,21000.0,31.0,,
,,,,,,,,,,,,,,,,,,,,,,,07/sep/22,f489,2022-09-07_09h23.15.546,tareaTDv3,2020.2.5,Win32,60,,,,0.0,,0.0,5.0,5.0,87.0,1.0,25000.0,0.0,75000.0,151.0,,
,,,,,,,,,,,,,,,,,,,,,,,07/sep/22,f489,2022-09-07_09h23.15.546,tareaTDv3,2020.2.5,Win32,60,,,right,0.0,3.7327,0.0,6.0,6.0,75.0,1.0,25000.0,0.0,35000.0,60.0,,
,,,,,,,,,,,,,,,,,,,,,,,07/sep/22,f489,2022-09-07_09h23.15.546,tareaTDv3,2020.2.5,Win32,60,,,left,0.0,5.0152,0.0,7.0,7.0,40.0,1.0,5000.0,0.0,14000.0,31.0,,
,,,,,,,,,,,,,,,,,,,,,,,07/sep/22,f489,2022-09-07_09h23.15.546,tareaTDv3,2020.2.5,Win32,60,,,left,0.0,3.0501,0.0,8.0,8.0,15.0,1.0,10000.0,0.0,20000.0,59.0,,
,,,,,,,,,,,,,,,,,,,,,,,07/sep/22,f489,2022-09-07_09h23.15.546,tareaTDv3,2020.2.5,Win32,60,,,left,1.0,3.0663,0.0,9.0,9.0,42.0,1.0,5000.0,0.0,56000.0,29.0,,
,,,,,,,,,,,,,,,,,,,,,,,07/sep/22,f489,2022-09-07_09h23.15.546,tareaTDv3,2020.2.5,Win32,60,,,left,1.0,3.3857,0.0,10.0,10.0,19.0,1.0,10000.0,0.0,149000.0,61.0,,
,,,,,,,,,,,,,,,,,,,,,,,07/sep/22,f489,2022-09-07_09h23.15.546,tareaTDv3,2020.2.5,Win32,60,,,right,1.0,3.9301,0.0,11.0,11.0,5.0,1.0,10000.0,0.0,19000.0,11.0,,
,,,,,,,,,,,,,,,,,,,,,,,07/sep/22,f489,2022-09-07_09h23.15.546,tareaTDv3,2020.2.5,Win32,60,,,left,1.0,2.6668,0.0,12.0,12.0,69.0,1.0,25000.0,0.0,150000.0,9.0,,
,,,,,,,,,,,,,,,,,,,,,,,07/sep/22,f489,2022-09-07_09h23.15.546,tareaTDv3,2020.2.5,Win32,60,,,left,1.0,5.6559,0.0,13.0,13.0,11.0,1.0,10000.0,0.0,39000.0,29.0,,
,,,,,,,,,,,,,,,,,,,,,,,07/sep/22,f489,2022-09-07_09h23.15.546,tareaTDv3,2020.2.5,Win32,60,,,right,0.0,7.1659,0.0,14.0,14.0,71.0,1.0,25000.0,0.0,55000.0,30.0,,
,,,,,,,,,,,,,,,,,,,,,,,07/sep/22,f489,2022-09-07_09h23.15.546,tareaTDv3,2020.2.5,Win32,60,,,right,1.0,1.8234,0.0,15.0,15.0,54.0,1.0,5000.0,0.0,150000.0,90.0,,
,,,,,,,,,,,,,,,,,,,,,,,07/sep/22,f489,2022-09-07_09h23.15.546,tareaTDv3,2020.2.5,Win32,60,,,left,1.0,2.3895,0.0,16.0,16.0,33.0,1.0,5000.0,0.0,104000.0,5.0,,
,,,,,,,,,,,,,,,,,,,,,,,07/sep/22,f489,2022-09-07_09h23.15.546,tareaTDv3,2020.2.5,Win32,60,,,left,1.0,2.449,0.0,17.0,17.0,17.0,1.0,10000.0,0.0,60000.0,60.0,,
,,,,,,,,,,,,,,,,,,,,,,,07/sep/22,f489,2022-09-07_09h23.15.546,tareaTDv3,2020.2.5,Win32,60,,,right,1.0,1.0574,0.0,18.0,18.0,38.0,1.0,5000.0,0.0,104000.0,10.0,,
,,,,,,,,,,,,,,,,,,,,,,,07/sep/22,f489,2022-09-07_09h23.15.546,tareaTDv3,2020.2.5,Win32,60,,,right,1.0,5.5491,0.0,19.0,19.0,21.0,1.0,10000.0,0.0,40000.0,91.0,,
,,,,,,,,,,,,,,,,,,,,,,,07/sep/22,f489,2022-09-07_09h23.15.546,tareaTDv3,2020.2.5,Win32,60,,,left,1.0,3.6584,0.0,20.0,20.0,63.0,1.0,25000.0,0.0,125000.0,4.0,,
,,,,,,,,,,,,,,,,,,,,,,,07/sep/22,f489,2022-09-07_09h23.15.546,tareaTDv3,2020.2.5,Win32,60,,,left,1.0,2.6035,0.0,21.0,21.0,64.0,1.0,25000.0,0.0,150000.0,4.0,,
,,,,,,,,,,,,,,,,,,,,,,,07/sep/22,f489,2022-09-07_09h23.15.546,tareaTDv3,2020.2.5,Win32,60,,,right,1.0,2.5577,0.0,22.0,22.0,6.0,1.0,10000.0,0.0,40000.0,10.0,,
,,,,,,,,,,,,,,,,,,,,,,,07/sep/22,f489,2022-09-07_09h23.15.546,tareaTDv3,2020.2.5,Win32,60,,,left,1.0,2.9911,0.0,23.0,23.0,79.0,1.0,25000.0,0.0,150000.0,61.0,,
,,,,,,,,,,,,,,,,,,,,,,,07/sep/22,f489,2022-09-07_09h23.15.546,tareaTDv3,2020.2.5,Win32,60,,,left,1.0,3.5336,0.0,24.0,24.0,34.0,1.0,5000.0,0.0,151000.0,4.0,,
,,,,,,,,,,,,,,,,,,,,,,,07/sep/22,f489,2022-09-07_09h23.15.546,tareaTDv3,2020.2.5,Win32,60,,,left,1.0,2.0173,0.0,25.0,25.0,37.0,1.0,5000.0,0.0,56000.0,9.0,,
,,,,,,,,,,,,,,,,,,,,,,,07/sep/22,f489,2022-09-07_09h23.15.546,tareaTDv3,2020.2.5,Win32,60,,,left,1.0,1.5538,0.0,26.0,26.0,27.0,1.0,10000.0,0.0,61000.0,150.0,,
,,,,,,,,,,,,,,,,,,,,,,,07/sep/22,f489,2022-09-07_09h23.15.546,tareaTDv3,2020.2.5,Win32,60,,,left,1.0,1.776,0.0,27.0,27.0,4.0,1.0,10000.0,0.0,150000.0,5.0,,
,,,,,,,,,,,,,,,,,,,,,,,07/sep/22,f489,2022-09-07_09h23.15.546,tareaTDv3,2020.2.5,Win32,60,,,left,1.0,2.2683,0.0,28.0,28.0,1.0,1.0,10000.0,0.0,39000.0,6.0,,
,,,,,,,,,,,,,,,,,,,,,,,07/sep/22,f489,2022-09-07_09h23.15.546,tareaTDv3,2020.2.5,Win32,60,,,left,1.0,2.6739,0.0,29.0,29.0,52.0,1.0,5000.0,0.0,56000.0,89.0,,
,,,,,,,,,,,,,,,,,,,,,,,07/sep/22,f489,2022-09-07_09h23.15.546,tareaTDv3,2020.2.5,Win32,60,,,left,1.0,3.5853,0.0,30.0,30.0,35.0,1.0,5000.0,0.0,15000.0,11.0,,
,,,,,,,,,,,,,,,,,,,,,,,07/sep/22,f489,2022-09-07_09h23.15.546,tareaTDv3,2020.2.5,Win32,60,,,right,1.0,1.8191,0.0,31.0,31.0,84.0,1.0,25000.0,0.0,150000.0,89.0,,
,,,,,,,,,,,,,,,,,,,,,,,07/sep/22,f489,2022-09-07_09h23.15.546,tareaTDv3,2020.2.5,Win32,60,,,left,1.0,1.4018,0.0,32.0,32.0,61.0,1.0,25000.0,0.0,55000.0,6.0,,
,,,,,,,,,,,,,,,,,,,,,,,07/sep/22,f489,2022-09-07_09h23.15.546,tareaTDv3,2020.2.5,Win32,60,,,left,1.0,1.1336,0.0,33.0,33.0,59.0,1.0,5000.0,0.0,151000.0,150.0,,
,,,,,,,,,,,,,,,,,,,,,,,07/sep/22,f489,2022-09-07_09h23.15.546,tareaTDv3,2020.2.5,Win32,60,,,right,1.0,0.6391,0.0,34.0,34.0,14.0,1.0,10000.0,0.0,150000.0,30.0,,
,,,,,,,,,,,,,,,,,,,,,,,07/sep/22,f489,2022-09-07_09h23.15.546,tareaTDv3,2020.2.5,Win32,60,,,right,1.0,1.2035,0.0,35.0,35.0,32.0,1.0,5000.0,0.0,54000.0,5.0,,
,,,,,,,,,,,,,,,,,,,,,,,07/sep/22,f489,2022-09-07_09h23.15.546,tareaTDv3,2020.2.5,Win32,60,,,right,1.0,1.4666,0.0,36.0,36.0,12.0,1.0,10000.0,0.0,60000.0,29.0,,
,,,,,,,,,,,,,,,,,,,,,,,07/sep/22,f489,2022-09-07_09h23.15.546,tareaTDv3,2020.2.5,Win32,60,,,left,0.0,2.0165,0.0,37.0,37.0,51.0,1.0,5000.0,0.0,35000.0,89.0,,
,,,,,,,,,,,,,,,,,,,,,,,07/sep/22,f489,2022-09-07_09h23.15.546,tareaTDv3,2020.2.5,Win32,60,,,right,1.0,1.2333,0.0,38.0,38.0,24.0,1.0,10000.0,0.0,149000.0,89.0,,
,,,,,,,,,,,,,,,,,,,,,,,07/sep/22,f489,2022-09-07_09h23.15.546,tareaTDv3,2020.2.5,Win32,60,,,right,0.0,4.4994,0.0,39.0,39.0,25.0,1.0,10000.0,0.0,10000.0,150.0,,
,,,,,,,,,,,,,,,,,,,,,,,07/sep/22,f489,2022-09-07_09h23.15.546,tareaTDv3,2020.2.5,Win32,60,,,right,1.0,6.1215,0.0,40.0,40.0,76.0,1.0,25000.0,0.0,55000.0,60.0,,
,,,,,,,,,,,,,,,,,,,,,,,07/sep/22,f489,2022-09-07_09h23.15.546,tareaTDv3,2020.2.5,Win32,60,,,right,1.0,1.2347,0.0,41.0,41.0,67.0,1.0,25000.0,0.0,75000.0,10.0,,
,,,,,,,,,,,,,,,,,,,,,,,07/sep/22,f489,2022-09-07_09h23.15.546,tareaTDv3,2020.2.5,Win32,60,,,right,1.0,1.4017,0.0,42.0,42.0,47.0,1.0,5000.0,0.0,56000.0,60.0,,
,,,,,,,,,,,,,,,,,,,,,,,07/sep/22,f489,2022-09-07_09h23.15.546,tareaTDv3,2020.2.5,Win32,60,,,right,1.0,0.867,0.0,43.0,43.0,2.0,1.0,10000.0,0.0,61000.0,4.0,,
,,,,,,,,,,,,,,,,,,,,,,,07/sep/22,f489,2022-09-07_09h23.15.546,tareaTDv3,2020.2.5,Win32,60,,,left,0.0,2.4893,0.0,44.0,44.0,50.0,1.0,5000.0,0.0,15000.0,91.0,,
,,,,,,,,,,,,,,,,,,,,,,,07/sep/22,f489,2022-09-07_09h23.15.546,tareaTDv3,2020.2.5,Win32,60,,,left,1.0,1.8824,0.0,45.0,45.0,53.0,1.0,5000.0,0.0,104000.0,90.0,,
,,,,,,,,,,,,,,,,,,,,,,,07/sep/22,f489,2022-09-07_09h23.15.546,tareaTDv3,2020.2.5,Win32,60,,,right,1.0,1.2502,0.0,46.0,46.0,82.0,1.0,25000.0,0.0,75000.0,90.0,,
,,,,,,,,,,,,,,,,,,,,,,,07/sep/22,f489,2022-09-07_09h23.15.546,tareaTDv3,2020.2.5,Win32,60,,,right,1.0,2.0709,0.0,47.0,47.0,13.0,1.0,10000.0,0.0,111000.0,30.0,,
,,,,,,,,,,,,,,,,,,,,,,,07/sep/22,f489,2022-09-07_09h23.15.546,tareaTDv3,2020.2.5,Win32,60,,,left,1.0,0.8338,0.0,48.0,48.0,8.0,1.0,10000.0,0.0,111000.0,10.0,,
,,,,,,,,,,,,,,,,,,,,,,,07/sep/22,f489,2022-09-07_09h23.15.546,tareaTDv3,2020.2.5,Win32,60,,,left,1.0,5.0713,0.0,49.0,49.0,56.0,1.0,5000.0,0.0,35000.0,150.0,,
,,,,,,,,,,,,,,,,,,,,,,,07/sep/22,f489,2022-09-07_09h23.15.546,tareaTDv3,2020.2.5,Win32,60,,,left,0.0,10.8,0.0,50.0,50.0,26.0,1.0,10000.0,0.0,39000.0,150.0,,
,,,,,,,,,,,,,,,,,,,,,,,07/sep/22,f489,2022-09-07_09h23.15.546,tareaTDv3,2020.2.5,Win32,60,,,right,1.0,3.4242,0.0,51.0,51.0,58.0,1.0,5000.0,0.0,106000.0,152.0,,
,,,,,,,,,,,,,,,,,,,,,,,07/sep/22,f489,2022-09-07_09h23.15.546,tareaTDv3,2020.2.5,Win32,60,,,left,0.0,3.4209,0.0,52.0,52.0,41.0,1.0,5000.0,0.0,35000.0,31.0,,
,,,,,,,,,,,,,,,,,,,,,,,07/sep/22,f489,2022-09-07_09h23.15.546,tareaTDv3,2020.2.5,Win32,60,,,right,1.0,3.7355,0.0,53.0,53.0,36.0,1.0,5000.0,0.0,36000.0,9.0,,
,,,,,,,,,,,,,,,,,,,,,,,07/sep/22,f489,2022-09-07_09h23.15.546,tareaTDv3,2020.2.5,Win32,60,,,left,0.0,8.3493,0.0,54.0,54.0,16.0,1.0,10000.0,0.0,39000.0,59.0,,
,,,,,,,,,,,,,,,,,,,,,,,07/sep/22,f489,2022-09-07_09h23.15.546,tareaTDv3,2020.2.5,Win32,60,,,left,1.0,1.6664,0.0,55.0,55.0,74.0,1.0,25000.0,0.0,150000.0,29.0,,
,,,,,,,,,,,,,,,,,,,,,,,07/sep/22,f489,2022-09-07_09h23.15.546,tareaTDv3,2020.2.5,Win32,60,,,left,0.0,6.8063,0.0,56.0,56.0,20.0,1.0,10000.0,0.0,20000.0,90.0,,
,,,,,,,,,,,,,,,,,,,,,,,07/sep/22,f489,2022-09-07_09h23.15.546,tareaTDv3,2020.2.5,Win32,60,,,left,1.0,1.6175,0.0,57.0,57.0,31.0,1.0,5000.0,0.0,35000.0,6.0,,
,,,,,,,,,,,,,,,,,,,,,,,07/sep/22,f489,2022-09-07_09h23.15.546,tareaTDv3,2020.2.5,Win32,60,,,left,0.0,2.4358,0.0,58.0,58.0,77.0,1.0,25000.0,0.0,75000.0,59.0,,
,,,,,,,,,,,,,,,,,,,,,,,07/sep/22,f489,2022-09-07_09h23.15.546,tareaTDv3,2020.2.5,Win32,60,,,left,1.0,1.0506,0.0,59.0,59.0,9.0,1.0,10000.0,0.0,151000.0,11.0,,
,,,,,,,,,,,,,,,,,,,,,,,07/sep/22,f489,2022-09-07_09h23.15.546,tareaTDv3,2020.2.5,Win32,60,,,right,0.0,4.4323,0.0,60.0,60.0,85.0,1.0,25000.0,0.0,35000.0,150.0,,
,,,,,,,,,,,,,,,,,,,,,,,07/sep/22,f489,2022-09-07_09h23.15.546,tareaTDv3,2020.2.5,Win32,60,,,right,1.0,2.3354,0.0,61.0,61.0,88.0,1.0,25000.0,0.0,125000.0,149.0,,
,,,,,,,,,,,,,,,,,,,,,,,07/sep/22,f489,2022-09-07_09h23.15.546,tareaTDv3,2020.2.5,Win32,60,,,left,1.0,3.4829,0.0,62.0,62.0,29.0,1.0,10000.0,0.0,151000.0,151.0,,
,,,,,,,,,,,,,,,,,,,,,,,07/sep/22,f489,2022-09-07_09h23.15.546,tareaTDv3,2020.2.5,Win32,60,,,right,1.0,2.3927,0.0,63.0,63.0,83.0,1.0,25000.0,0.0,125000.0,89.0,,
,,,,,,,,,,,,,,,,,,,,,,,07/sep/22,f489,2022-09-07_09h23.15.546,tareaTDv3,2020.2.5,Win32,60,,,right,1.0,2.1025,0.0,64.0,64.0,57.0,1.0,5000.0,0.0,55000.0,151.0,,
,,,,,,,,,,,,,,,,,,,,,,,07/sep/22,f489,2022-09-07_09h23.15.546,tareaTDv3,2020.2.5,Win32,60,,,left,0.0,2.716,0.0,65.0,65.0,55.0,1.0,5000.0,0.0,14000.0,149.0,,
,,,,,,,,,,,,,,,,,,,,,,,07/sep/22,f489,2022-09-07_09h23.15.546,tareaTDv3,2020.2.5,Win32,60,,,right,1.0,2.367,0.0,66.0,66.0,65.0,1.0,25000.0,0.0,35000.0,11.0,,
,,,,,,,,,,,,,,,,,,,,,,,07/sep/22,f489,2022-09-07_09h23.15.546,tareaTDv3,2020.2.5,Win32,60,,,right,1.0,0.8666,0.0,67.0,67.0,43.0,1.0,5000.0,0.0,106000.0,29.0,,
,,,,,,,,,,,,,,,,,,,,,,,07/sep/22,f489,2022-09-07_09h23.15.546,tareaTDv3,2020.2.5,Win32,60,,,left,0.0,2.5374,0.0,68.0,68.0,80.0,1.0,25000.0,0.0,35000.0,90.0,,
,,,,,,,,,,,,,,,,,,,,,,,07/sep/22,f489,2022-09-07_09h23.15.546,tareaTDv3,2020.2.5,Win32,60,,,right,1.0,1.8397,0.0,69.0,69.0,0.0,1.0,10000.0,0.0,20000.0,5.0,,
,,,,,,,,,,,,,,,,,,,,,,,07/sep/22,f489,2022-09-07_09h23.15.546,tareaTDv3,2020.2.5,Win32,60,,,left,1.0,3.466,0.0,70.0,70.0,48.0,1.0,5000.0,0.0,105000.0,60.0,,
,,,,,,,,,,,,,,,,,,,,,,,07/sep/22,f489,2022-09-07_09h23.15.546,tareaTDv3,2020.2.5,Win32,60,,,left,1.0,3.604,0.0,71.0,71.0,30.0,1.0,5000.0,0.0,16000.0,4.0,,
,,,,,,,,,,,,,,,,,,,,,,,07/sep/22,f489,2022-09-07_09h23.15.546,tareaTDv3,2020.2.5,Win32,60,,,right,1.0,2.6227,0.0,72.0,72.0,23.0,1.0,10000.0,0.0,110000.0,90.0,,
,,,,,,,,,,,,,,,,,,,,,,,07/sep/22,f489,2022-09-07_09h23.15.546,tareaTDv3,2020.2.5,Win32,60,,,left,0.0,3.117,0.0,73.0,73.0,72.0,1.0,25000.0,0.0,75000.0,31.0,,
,,,,,,,,,,,,,,,,,,,,,,,07/sep/22,f489,2022-09-07_09h23.15.546,tareaTDv3,2020.2.5,Win32,60,,,left,1.0,0.7337,0.0,74.0,74.0,49.0,1.0,5000.0,0.0,149000.0,59.0,,
,,,,,,,,,,,,,,,,,,,,,,,07/sep/22,f489,2022-09-07_09h23.15.546,tareaTDv3,2020.2.5,Win32,60,,,right,1.0,2.2681,0.0,75.0,75.0,3.0,1.0,10000.0,0.0,109000.0,5.0,,
,,,,,,,,,,,,,,,,,,,,,,,07/sep/22,f489,2022-09-07_09h23.15.546,tareaTDv3,2020.2.5,Win32,60,,,right,1.0,1.0007,0.0,76.0,76.0,7.0,1.0,10000.0,0.0,59000.0,9.0,,
,,,,,,,,,,,,,,,,,,,,,,,07/sep/22,f489,2022-09-07_09h23.15.546,tareaTDv3,2020.2.5,Win32,60,,,left,1.0,1.7895,0.0,77.0,77.0,60.0,1.0,25000.0,0.0,35000.0,5.0,,
,,,,,,,,,,,,,,,,,,,,,,,07/sep/22,f489,2022-09-07_09h23.15.546,tareaTDv3,2020.2.5,Win32,60,,,left,1.0,1.3006,0.0,78.0,78.0,18.0,1.0,10000.0,0.0,110000.0,60.0,,
,,,,,,,,,,,,,,,,,,,,,,,07/sep/22,f489,2022-09-07_09h23.15.546,tareaTDv3,2020.2.5,Win32,60,,,right,1.0,0.8701,0.0,79.0,79.0,46.0,1.0,5000.0,0.0,36000.0,61.0,,
,,,,,,,,,,,,,,,,,,,,,,,07/sep/22,f489,2022-09-07_09h23.15.546,tareaTDv3,2020.2.5,Win32,60,,,right,1.0,2.6998,0.0,80.0,80.0,70.0,1.0,25000.0,0.0,35000.0,30.0,,
,,,,,,,,,,,,,,,,,,,,,,,07/sep/22,f489,2022-09-07_09h23.15.546,tareaTDv3,2020.2.5,Win32,60,,,left,1.0,0.6171,0.0,81.0,81.0,68.0,1.0,25000.0,0.0,125000.0,9.0,,
,,,,,,,,,,,,,,,,,,,,,,,07/sep/22,f489,2022-09-07_09h23.15.546,tareaTDv3,2020.2.5,Win32,60,,,right,1.0,0.4675,0.0,82.0,82.0,44.0,1.0,5000.0,0.0,150000.0,30.0,,
,,,,,,,,,,,,,,,,,,,,,,,07/sep/22,f489,2022-09-07_09h23.15.546,tareaTDv3,2020.2.5,Win32,60,,,left,1.0,1.4401,0.0,83.0,83.0,66.0,1.0,25000.0,0.0,55000.0,11.0,,
,,,,,,,,,,,,,,,,,,,,,,,07/sep/22,f489,2022-09-07_09h23.15.546,tareaTDv3,2020.2.5,Win32,60,,,right,1.0,0.65,0.0,84.0,84.0,81.0,1.0,25000.0,0.0,55000.0,90.0,,
,,,,,,,,,,,,,,,,,,,,,,,07/sep/22,f489,2022-09-07_09h23.15.546,tareaTDv3,2020.2.5,Win32,60,,,right,0.0,2.1717,0.0,85.0,85.0,45.0,1.0,5000.0,0.0,15000.0,61.0,,
,,,,,,,,,,,,,,,,,,,,,,,07/sep/22,f489,2022-09-07_09h23.15.546,tareaTDv3,2020.2.5,Win32,60,,,right,1.0,1.4402,0.0,86.0,86.0,62.0,1.0,25000.0,0.0,75000.0,5.0,,
,,,,,,,,,,,,,,,,,,,,,,,07/sep/22,f489,2022-09-07_09h23.15.546,tareaTDv3,2020.2.5,Win32,60,,,right,1.0,0.5893,0.0,87.0,87.0,28.0,1.0,10000.0,0.0,109000.0,149.0,,
,,,,,,,,,,,,,,,,,,,,,,,07/sep/22,f489,2022-09-07_09h23.15.546,tareaTDv3,2020.2.5,Win32,60,,,left,1.0,2.4327,0.0,88.0,88.0,89.0,1.0,25000.0,0.0,150000.0,150.0,,
,,,,,,,,,,,,,,,,,,,,,,,07/sep/22,f489,2022-09-07_09h23.15.546,tareaTDv3,2020.2.5,Win32,60,,,left,1.0,2.2022,0.0,89.0,89.0,22.0,1.0,10000.0,0.0,61000.0,89.0,,
,,,,,,,,,,,,,,,,,,,,,,,07/sep/22,f489,2022-09-07_09h23.15.546,tareaTDv3,2020.2.5,Win32,60,,,,,,,,,,,,,,,right,1.1172
