key1.keys,key1.rt,key2.keys,key2.rt,key2_2.keys,key2_2.rt,key2_3.keys,key2_3.rt,key3.keys,key3.rt,key4.keys,key4.rt,respP.keys,respP.corr,respP.rt,Practice.thisRepN,Practice.thisTrialN,Practice.thisN,Practice.thisIndex,Practice.ran,ssAmount,llAmount,llDelay,session,participant,date,expName,psychopyVersion,OS,frameRate,key5.keys,key5.rt,respT.keys,respT.corr,respT.rt,trials.thisRepN,trials.thisTrialN,trials.thisN,trials.thisIndex,trials.ran,ss_Amt,ss_Delay,ll_Amt,ll_Delay
space,32.685275,space,26.28276,space,29.31617,space,10.2532,left,177.098095,space,6.23481,left,0,7.321955,0,0,0,2,1,10000,19000,89,002,148,2020-11-12_11h23.21.322,tareaTDv3,2020.2.5,Win32,60,,,,,,,,,,,,,,
,,,,,,,,,,,,right,1,6.753515,0,1,1,1,1,25000,35000,150,002,148,2020-11-12_11h23.21.322,tareaTDv3,2020.2.5,Win32,60,,,,,,,,,,,,,,
,,,,,,,,,,,,right,1,5.60685,0,2,2,0,1,10000,109000,9,002,148,2020-11-12_11h23.21.322,tareaTDv3,2020.2.5,Win32,60,,,,,,,,,,,,,,
,,,,,,,,,,,,,,,,,,,,,,,002,148,2020-11-12_11h23.21.322,tareaTDv3,2020.2.5,Win32,60,g,81.92566,right,1,2.267085,0,0,0,27,1,10000,0,61000,150
,,,,,,,,,,,,,,,,,,,,,,,002,148,2020-11-12_11h23.21.322,tareaTDv3,2020.2.5,Win32,60,,,right,1,2.06823,0,1,1,13,1,10000,0,111000,30
,,,,,,,,,,,,,,,,,,,,,,,002,148,2020-11-12_11h23.21.322,tareaTDv3,2020.2.5,Win32,60,,,left,1,1.80231,0,2,2,4,1,10000,0,150000,5
,,,,,,,,,,,,,,,,,,,,,,,002,148,2020-11-12_11h23.21.322,tareaTDv3,2020.2.5,Win32,60,,,right,1,2.405875,0,3,3,89,1,25000,0,150000,150
,,,,,,,,,,,,,,,,,,,,,,,002,148,2020-11-12_11h23.21.322,tareaTDv3,2020.2.5,Win32,60,,,left,1,3.16093,0,4,4,69,1,25000,0,150000,9
,,,,,,,,,,,,,,,,,,,,,,,002,148,2020-11-12_11h23.21.322,tareaTDv3,2020.2.5,Win32,60,,,left,1,4.15814,0,5,5,18,1,10000,0,110000,60
,,,,,,,,,,,,,,,,,,,,,,,002,148,2020-11-12_11h23.21.322,tareaTDv3,2020.2.5,Win32,60,,,right,1,2.23599,0,6,6,59,1,5000,0,151000,150
,,,,,,,,,,,,,,,,,,,,,,,002,148,2020-11-12_11h23.21.322,tareaTDv3,2020.2.5,Win32,60,,,right,1,2.653735,0,7,7,62,1,25000,0,75000,5
,,,,,,,,,,,,,,,,,,,,,,,002,148,2020-11-12_11h23.21.322,tareaTDv3,2020.2.5,Win32,60,,,left,1,2.991535,0,8,8,11,1,10000,0,39000,29
,,,,,,,,,,,,,,,,,,,,,,,002,148,2020-11-12_11h23.21.322,tareaTDv3,2020.2.5,Win32,60,,,right,1,2.643425,0,9,9,41,1,5000,0,35000,31
,,,,,,,,,,,,,,,,,,,,,,,002,148,2020-11-12_11h23.21.322,tareaTDv3,2020.2.5,Win32,60,,,left,0,3.086335,0,10,10,80,1,25000,0,35000,90
,,,,,,,,,,,,,,,,,,,,,,,002,148,2020-11-12_11h23.21.322,tareaTDv3,2020.2.5,Win32,60,,,left,1,2.583965,0,11,11,9,1,10000,0,151000,11
,,,,,,,,,,,,,,,,,,,,,,,002,148,2020-11-12_11h23.21.322,tareaTDv3,2020.2.5,Win32,60,,,right,1,1.793535,0,12,12,47,1,5000,0,56000,60
,,,,,,,,,,,,,,,,,,,,,,,002,148,2020-11-12_11h23.21.322,tareaTDv3,2020.2.5,Win32,60,,,right,1,2.941565,0,13,13,83,1,25000,0,125000,89
,,,,,,,,,,,,,,,,,,,,,,,002,148,2020-11-12_11h23.21.322,tareaTDv3,2020.2.5,Win32,60,,,right,1,1.555745,0,14,14,57,1,5000,0,55000,151
,,,,,,,,,,,,,,,,,,,,,,,002,148,2020-11-12_11h23.21.322,tareaTDv3,2020.2.5,Win32,60,,,left,0,4.856605,0,15,15,15,1,10000,0,20000,59
,,,,,,,,,,,,,,,,,,,,,,,002,148,2020-11-12_11h23.21.322,tareaTDv3,2020.2.5,Win32,60,,,left,1,2.85904,0,16,16,35,1,5000,0,15000,11
,,,,,,,,,,,,,,,,,,,,,,,002,148,2020-11-12_11h23.21.322,tareaTDv3,2020.2.5,Win32,60,,,left,0,1.996295,0,17,17,45,1,5000,0,15000,61
,,,,,,,,,,,,,,,,,,,,,,,002,148,2020-11-12_11h23.21.322,tareaTDv3,2020.2.5,Win32,60,,,left,1,2.23458,0,18,18,29,1,10000,0,151000,151
,,,,,,,,,,,,,,,,,,,,,,,002,148,2020-11-12_11h23.21.322,tareaTDv3,2020.2.5,Win32,60,,,left,1,2.241965,0,19,19,31,1,5000,0,35000,6
,,,,,,,,,,,,,,,,,,,,,,,002,148,2020-11-12_11h23.21.322,tareaTDv3,2020.2.5,Win32,60,,,left,1,2.950515,0,20,20,86,1,25000,0,55000,151
,,,,,,,,,,,,,,,,,,,,,,,002,148,2020-11-12_11h23.21.322,tareaTDv3,2020.2.5,Win32,60,,,right,1,3.04148,0,21,21,88,1,25000,0,125000,149
,,,,,,,,,,,,,,,,,,,,,,,002,148,2020-11-12_11h23.21.322,tareaTDv3,2020.2.5,Win32,60,,,right,1,2.29162,0,22,22,64,1,25000,0,150000,4
,,,,,,,,,,,,,,,,,,,,,,,002,148,2020-11-12_11h23.21.322,tareaTDv3,2020.2.5,Win32,60,,,right,1,2.084615,0,23,23,46,1,5000,0,36000,61
,,,,,,,,,,,,,,,,,,,,,,,002,148,2020-11-12_11h23.21.322,tareaTDv3,2020.2.5,Win32,60,,,right,0,4.59565,0,24,24,40,1,5000,0,14000,31
,,,,,,,,,,,,,,,,,,,,,,,002,148,2020-11-12_11h23.21.322,tareaTDv3,2020.2.5,Win32,60,,,left,1,5.391445,0,25,25,42,1,5000,0,56000,29
,,,,,,,,,,,,,,,,,,,,,,,002,148,2020-11-12_11h23.21.322,tareaTDv3,2020.2.5,Win32,60,,,right,1,1.98465,0,26,26,54,1,5000,0,150000,90
,,,,,,,,,,,,,,,,,,,,,,,002,148,2020-11-12_11h23.21.322,tareaTDv3,2020.2.5,Win32,60,,,right,1,1.623735,0,27,27,53,1,5000,0,104000,90
,,,,,,,,,,,,,,,,,,,,,,,002,148,2020-11-12_11h23.21.322,tareaTDv3,2020.2.5,Win32,60,,,left,1,1.747225,0,28,28,58,1,5000,0,106000,152
,,,,,,,,,,,,,,,,,,,,,,,002,148,2020-11-12_11h23.21.322,tareaTDv3,2020.2.5,Win32,60,,,left,1,4.392445,0,29,29,79,1,25000,0,150000,61
,,,,,,,,,,,,,,,,,,,,,,,002,148,2020-11-12_11h23.21.322,tareaTDv3,2020.2.5,Win32,60,,,right,1,1.783795,0,30,30,43,1,5000,0,106000,29
,,,,,,,,,,,,,,,,,,,,,,,002,148,2020-11-12_11h23.21.322,tareaTDv3,2020.2.5,Win32,60,,,left,1,3.169755,0,31,31,38,1,5000,0,104000,10
,,,,,,,,,,,,,,,,,,,,,,,002,148,2020-11-12_11h23.21.322,tareaTDv3,2020.2.5,Win32,60,,,left,1,2.10312,0,32,32,66,1,25000,0,55000,11
,,,,,,,,,,,,,,,,,,,,,,,002,148,2020-11-12_11h23.21.322,tareaTDv3,2020.2.5,Win32,60,,,right,1,1.76898,0,33,33,10,1,10000,0,21000,31
,,,,,,,,,,,,,,,,,,,,,,,002,148,2020-11-12_11h23.21.322,tareaTDv3,2020.2.5,Win32,60,,,left,1,1.58612,0,34,34,61,1,25000,0,55000,6
,,,,,,,,,,,,,,,,,,,,,,,002,148,2020-11-12_11h23.21.322,tareaTDv3,2020.2.5,Win32,60,,,left,0,3.67751,0,35,35,85,1,25000,0,35000,150
,,,,,,,,,,,,,,,,,,,,,,,002,148,2020-11-12_11h23.21.322,tareaTDv3,2020.2.5,Win32,60,,,left,1,1.190975,0,36,36,44,1,5000,0,150000,30
,,,,,,,,,,,,,,,,,,,,,,,002,148,2020-11-12_11h23.21.322,tareaTDv3,2020.2.5,Win32,60,,,right,1,2.12161,0,37,37,37,1,5000,0,56000,9
,,,,,,,,,,,,,,,,,,,,,,,002,148,2020-11-12_11h23.21.322,tareaTDv3,2020.2.5,Win32,60,,,left,1,1.467635,0,38,38,65,1,25000,0,35000,11
,,,,,,,,,,,,,,,,,,,,,,,002,148,2020-11-12_11h23.21.322,tareaTDv3,2020.2.5,Win32,60,,,left,1,6.209245,0,39,39,73,1,25000,0,125000,31
,,,,,,,,,,,,,,,,,,,,,,,002,148,2020-11-12_11h23.21.322,tareaTDv3,2020.2.5,Win32,60,,,right,1,1.988865,0,40,40,74,1,25000,0,150000,29
,,,,,,,,,,,,,,,,,,,,,,,002,148,2020-11-12_11h23.21.322,tareaTDv3,2020.2.5,Win32,60,,,right,1,1.792975,0,41,41,52,1,5000,0,56000,89
,,,,,,,,,,,,,,,,,,,,,,,002,148,2020-11-12_11h23.21.322,tareaTDv3,2020.2.5,Win32,60,,,right,1,2.724685,0,42,42,36,1,5000,0,36000,9
,,,,,,,,,,,,,,,,,,,,,,,002,148,2020-11-12_11h23.21.322,tareaTDv3,2020.2.5,Win32,60,,,left,0,6.90039,0,43,43,50,1,5000,0,15000,91
,,,,,,,,,,,,,,,,,,,,,,,002,148,2020-11-12_11h23.21.322,tareaTDv3,2020.2.5,Win32,60,,,left,1,2.63599,0,44,44,78,1,25000,0,125000,59
,,,,,,,,,,,,,,,,,,,,,,,002,148,2020-11-12_11h23.21.322,tareaTDv3,2020.2.5,Win32,60,,,left,1,2.189685,0,45,45,72,1,25000,0,75000,31
,,,,,,,,,,,,,,,,,,,,,,,002,148,2020-11-12_11h23.21.322,tareaTDv3,2020.2.5,Win32,60,,,right,0,2.569345,0,46,46,75,1,25000,0,35000,60
,,,,,,,,,,,,,,,,,,,,,,,002,148,2020-11-12_11h23.21.322,tareaTDv3,2020.2.5,Win32,60,,,right,0,5.05468,0,47,47,5,1,10000,0,19000,11
,,,,,,,,,,,,,,,,,,,,,,,002,148,2020-11-12_11h23.21.322,tareaTDv3,2020.2.5,Win32,60,,,right,1,1.8958,0,48,48,33,1,5000,0,104000,5
,,,,,,,,,,,,,,,,,,,,,,,002,148,2020-11-12_11h23.21.322,tareaTDv3,2020.2.5,Win32,60,,,right,1,3.103875,0,49,49,82,1,25000,0,75000,90
,,,,,,,,,,,,,,,,,,,,,,,002,148,2020-11-12_11h23.21.322,tareaTDv3,2020.2.5,Win32,60,,,right,1,1.017315,0,50,50,32,1,5000,0,54000,5
,,,,,,,,,,,,,,,,,,,,,,,002,148,2020-11-12_11h23.21.322,tareaTDv3,2020.2.5,Win32,60,,,left,1,3.954345,0,51,51,0,1,10000,0,20000,5
,,,,,,,,,,,,,,,,,,,,,,,002,148,2020-11-12_11h23.21.322,tareaTDv3,2020.2.5,Win32,60,,,left,1,1.895475,0,52,52,19,1,10000,0,149000,61
,,,,,,,,,,,,,,,,,,,,,,,002,148,2020-11-12_11h23.21.322,tareaTDv3,2020.2.5,Win32,60,,,left,1,2.867835,0,53,53,8,1,10000,0,111000,10
,,,,,,,,,,,,,,,,,,,,,,,002,148,2020-11-12_11h23.21.322,tareaTDv3,2020.2.5,Win32,60,,,right,1,1.74411,0,54,54,28,1,10000,0,109000,149
,,,,,,,,,,,,,,,,,,,,,,,002,148,2020-11-12_11h23.21.322,tareaTDv3,2020.2.5,Win32,60,,,right,1,3.69455,0,55,55,3,1,10000,0,109000,5
,,,,,,,,,,,,,,,,,,,,,,,002,148,2020-11-12_11h23.21.322,tareaTDv3,2020.2.5,Win32,60,,,left,1,2.42242,0,56,56,23,1,10000,0,110000,90
,,,,,,,,,,,,,,,,,,,,,,,002,148,2020-11-12_11h23.21.322,tareaTDv3,2020.2.5,Win32,60,,,right,1,2.450875,0,57,57,21,1,10000,0,40000,91
,,,,,,,,,,,,,,,,,,,,,,,002,148,2020-11-12_11h23.21.322,tareaTDv3,2020.2.5,Win32,60,,,left,1,2.90589,0,58,58,49,1,5000,0,149000,59
,,,,,,,,,,,,,,,,,,,,,,,002,148,2020-11-12_11h23.21.322,tareaTDv3,2020.2.5,Win32,60,,,left,1,4.77789,0,59,59,16,1,10000,0,39000,59
,,,,,,,,,,,,,,,,,,,,,,,002,148,2020-11-12_11h23.21.322,tareaTDv3,2020.2.5,Win32,60,,,left,1,2.11025,0,60,60,68,1,25000,0,125000,9
,,,,,,,,,,,,,,,,,,,,,,,002,148,2020-11-12_11h23.21.322,tareaTDv3,2020.2.5,Win32,60,,,left,0,3.9902,0,61,61,25,1,10000,0,10000,150
,,,,,,,,,,,,,,,,,,,,,,,002,148,2020-11-12_11h23.21.322,tareaTDv3,2020.2.5,Win32,60,,,left,1,2.170275,0,62,62,63,1,25000,0,125000,4
,,,,,,,,,,,,,,,,,,,,,,,002,148,2020-11-12_11h23.21.322,tareaTDv3,2020.2.5,Win32,60,,,left,1,14.73587,0,63,63,77,1,25000,0,75000,59
,,,,,,,,,,,,,,,,,,,,,,,002,148,2020-11-12_11h23.21.322,tareaTDv3,2020.2.5,Win32,60,,,left,1,8.383815,0,64,64,71,1,25000,0,55000,30
,,,,,,,,,,,,,,,,,,,,,,,002,148,2020-11-12_11h23.21.322,tareaTDv3,2020.2.5,Win32,60,,,right,1,4.65139,0,65,65,87,1,25000,0,75000,151
,,,,,,,,,,,,,,,,,,,,,,,002,148,2020-11-12_11h23.21.322,tareaTDv3,2020.2.5,Win32,60,,,right,1,3.02845,0,66,66,7,1,10000,0,59000,9
,,,,,,,,,,,,,,,,,,,,,,,002,148,2020-11-12_11h23.21.322,tareaTDv3,2020.2.5,Win32,60,,,left,1,4.15248,0,67,67,12,1,10000,0,60000,29
,,,,,,,,,,,,,,,,,,,,,,,002,148,2020-11-12_11h23.21.322,tareaTDv3,2020.2.5,Win32,60,,,left,1,2.270045,0,68,68,48,1,5000,0,105000,60
,,,,,,,,,,,,,,,,,,,,,,,002,148,2020-11-12_11h23.21.322,tareaTDv3,2020.2.5,Win32,60,,,left,1,2.541235,0,69,69,84,1,25000,0,150000,89
,,,,,,,,,,,,,,,,,,,,,,,002,148,2020-11-12_11h23.21.322,tareaTDv3,2020.2.5,Win32,60,,,right,1,7.03711,0,70,70,17,1,10000,0,60000,60
,,,,,,,,,,,,,,,,,,,,,,,002,148,2020-11-12_11h23.21.322,tareaTDv3,2020.2.5,Win32,60,,,left,0,2.076755,0,71,71,70,1,25000,0,35000,30
,,,,,,,,,,,,,,,,,,,,,,,002,148,2020-11-12_11h23.21.322,tareaTDv3,2020.2.5,Win32,60,,,left,1,3.633855,0,72,72,51,1,5000,0,35000,89
,,,,,,,,,,,,,,,,,,,,,,,002,148,2020-11-12_11h23.21.322,tareaTDv3,2020.2.5,Win32,60,,,left,1,8.02499,0,73,73,67,1,25000,0,75000,10
,,,,,,,,,,,,,,,,,,,,,,,002,148,2020-11-12_11h23.21.322,tareaTDv3,2020.2.5,Win32,60,,,right,1,12.86876,0,74,74,76,1,25000,0,55000,60
,,,,,,,,,,,,,,,,,,,,,,,002,148,2020-11-12_11h23.21.322,tareaTDv3,2020.2.5,Win32,60,,,right,1,1.677855,0,75,75,2,1,10000,0,61000,4
,,,,,,,,,,,,,,,,,,,,,,,002,148,2020-11-12_11h23.21.322,tareaTDv3,2020.2.5,Win32,60,,,right,1,1.91048,0,76,76,1,1,10000,0,39000,6
,,,,,,,,,,,,,,,,,,,,,,,002,148,2020-11-12_11h23.21.322,tareaTDv3,2020.2.5,Win32,60,,,left,1,2.14187,0,77,77,56,1,5000,0,35000,150
,,,,,,,,,,,,,,,,,,,,,,,002,148,2020-11-12_11h23.21.322,tareaTDv3,2020.2.5,Win32,60,,,right,1,2.950765,0,78,78,6,1,10000,0,40000,10
,,,,,,,,,,,,,,,,,,,,,,,002,148,2020-11-12_11h23.21.322,tareaTDv3,2020.2.5,Win32,60,,,left,1,4.9056,0,79,79,81,1,25000,0,55000,90
,,,,,,,,,,,,,,,,,,,,,,,002,148,2020-11-12_11h23.21.322,tareaTDv3,2020.2.5,Win32,60,,,left,1,2.329185,0,80,80,30,1,5000,0,16000,4
,,,,,,,,,,,,,,,,,,,,,,,002,148,2020-11-12_11h23.21.322,tareaTDv3,2020.2.5,Win32,60,,,right,1,2.73584,0,81,81,24,1,10000,0,149000,89
,,,,,,,,,,,,,,,,,,,,,,,002,148,2020-11-12_11h23.21.322,tareaTDv3,2020.2.5,Win32,60,,,right,1,4.461335,0,82,82,26,1,10000,0,39000,150
,,,,,,,,,,,,,,,,,,,,,,,002,148,2020-11-12_11h23.21.322,tareaTDv3,2020.2.5,Win32,60,,,right,1,1.89549,0,83,83,39,1,5000,0,149000,10
,,,,,,,,,,,,,,,,,,,,,,,002,148,2020-11-12_11h23.21.322,tareaTDv3,2020.2.5,Win32,60,,,right,1,2.55275,0,84,84,55,1,5000,0,14000,149
,,,,,,,,,,,,,,,,,,,,,,,002,148,2020-11-12_11h23.21.322,tareaTDv3,2020.2.5,Win32,60,,,left,1,2.372825,0,85,85,22,1,10000,0,61000,89
,,,,,,,,,,,,,,,,,,,,,,,002,148,2020-11-12_11h23.21.322,tareaTDv3,2020.2.5,Win32,60,,,right,1,5.145725,0,86,86,20,1,10000,0,20000,90
,,,,,,,,,,,,,,,,,,,,,,,002,148,2020-11-12_11h23.21.322,tareaTDv3,2020.2.5,Win32,60,,,right,1,1.855635,0,87,87,60,1,25000,0,35000,5
,,,,,,,,,,,,,,,,,,,,,,,002,148,2020-11-12_11h23.21.322,tareaTDv3,2020.2.5,Win32,60,,,right,1,2.337305,0,88,88,34,1,5000,0,151000,4
,,,,,,,,,,,,,,,,,,,,,,,002,148,2020-11-12_11h23.21.322,tareaTDv3,2020.2.5,Win32,60,,,left,1,1.48672,0,89,89,14,1,10000,0,150000,30
