ssAmount,llAmount,llDelay,ss_am,ss_del,ll_am,ll_del,Practice.thisRepN,Practice.thisTrialN,Practice.thisN,Practice.thisIndex,trials.thisRepN,trials.thisTrialN,trials.thisN,trials.thisIndex,key1.keys,key1.rt,key2.keys,key2.rt,key2_2.keys,key2_2.rt,key2_3.keys,key2_3.rt,key3.keys,key3.rt,key4.keys,key4.rt,respP.keys,respP.corr,respP.rt,key5.keys,key5.rt,respT.keys,respT.corr,respT.rt,session,psychopyVersion,frameRate,expName,date,participant,
,,,,,,,,,,,,,,,space,18.3647280775,,,,,,,,,,,,,,,,,,,001,3.0.3,60.30694208362026,ninosDelConv2,2019_Aug_10_0841,201,
,,,,,,,,,,,,,,,,,space,31.3797503232,,,,,,,,,,,,,,,,,001,3.0.3,60.30694208362026,ninosDelConv2,2019_Aug_10_0841,201,
,,,,,,,,,,,,,,,,,,,space,16.5146945353,,,,,,,,,,,,,,,001,3.0.3,60.30694208362026,ninosDelConv2,2019_Aug_10_0841,201,
,,,,,,,,,,,,,,,,,,,,,space,3.28367282418,,,,,,,,,,,,,001,3.0.3,60.30694208362026,ninosDelConv2,2019_Aug_10_0841,201,
,,,,,,,,,,,,,,,,,,,,,,,right,11.9986444355,,,,,,,,,,,001,3.0.3,60.30694208362026,ninosDelConv2,2019_Aug_10_0841,201,
,,,,,,,,,,,,,,,,,,,,,,,,,space,2.55118631176,,,,,,,,,001,3.0.3,60.30694208362026,ninosDelConv2,2019_Aug_10_0841,201,
10,19,89,,,,,0,0,0,2,,,,,,,,,,,,,,,,,right,0,5.48314437509,,,,,,001,3.0.3,60.30694208362026,ninosDelConv2,2019_Aug_10_0841,201,
25,35,150,,,,,0,1,1,1,,,,,,,,,,,,,,,,,left,1,4.13426822904,,,,,,001,3.0.3,60.30694208362026,ninosDelConv2,2019_Aug_10_0841,201,
10,109,9,,,,,0,2,2,0,,,,,,,,,,,,,,,,,right,1,4.56675551261,,,,,,001,3.0.3,60.30694208362026,ninosDelConv2,2019_Aug_10_0841,201,
,,,,,,,,,,,,,,,,,,,,,,,,,,,,,,g,41.7092414339,,,,001,3.0.3,60.30694208362026,ninosDelConv2,2019_Aug_10_0841,201,
,,,10,0,59.0,9,,,,,0,0,0,7,,,,,,,,,,,,,,,,,,left,1,4.50028195948,001,3.0.3,60.30694208362026,ninosDelConv2,2019_Aug_10_0841,201,
,,,25,0,55.0,6,,,,,0,1,1,61,,,,,,,,,,,,,,,,,,left,1,2.1667056492,001,3.0.3,60.30694208362026,ninosDelConv2,2019_Aug_10_0841,201,
,,,5,0,35.0,6,,,,,0,2,2,31,,,,,,,,,,,,,,,,,,right,1,6.84955701261,001,3.0.3,60.30694208362026,ninosDelConv2,2019_Aug_10_0841,201,
,,,25,0,75.0,151,,,,,0,3,3,87,,,,,,,,,,,,,,,,,,left,0,3.06696499026,001,3.0.3,60.30694208362026,ninosDelConv2,2019_Aug_10_0841,201,
,,,5,0,36.0,61,,,,,0,4,4,46,,,,,,,,,,,,,,,,,,left,0,5.18400361895,001,3.0.3,60.30694208362026,ninosDelConv2,2019_Aug_10_0841,201,
,,,5,0,56.0,29,,,,,0,5,5,42,,,,,,,,,,,,,,,,,,left,1,3.0832101742,001,3.0.3,60.30694208362026,ninosDelConv2,2019_Aug_10_0841,201,
,,,25,0,75.0,5,,,,,0,6,6,62,,,,,,,,,,,,,,,,,,right,1,1.28504638068,001,3.0.3,60.30694208362026,ninosDelConv2,2019_Aug_10_0841,201,
,,,25,0,150.0,89,,,,,0,7,7,84,,,,,,,,,,,,,,,,,,right,1,2.59985709254,001,3.0.3,60.30694208362026,ninosDelConv2,2019_Aug_10_0841,201,
,,,10,0,111.0,10,,,,,0,8,8,8,,,,,,,,,,,,,,,,,,left,1,2.64937041042,001,3.0.3,60.30694208362026,ninosDelConv2,2019_Aug_10_0841,201,
,,,25,0,35.0,11,,,,,0,9,9,65,,,,,,,,,,,,,,,,,,left,0,2.55086091458,001,3.0.3,60.30694208362026,ninosDelConv2,2019_Aug_10_0841,201,
,,,5,0,151.0,150,,,,,0,10,10,59,,,,,,,,,,,,,,,,,,right,1,4.93348429434,001,3.0.3,60.30694208362026,ninosDelConv2,2019_Aug_10_0841,201,
,,,5,0,150.0,90,,,,,0,11,11,54,,,,,,,,,,,,,,,,,,left,1,2.45055068203,001,3.0.3,60.30694208362026,ninosDelConv2,2019_Aug_10_0841,201,
,,,5,0,14.0,149,,,,,0,12,12,55,,,,,,,,,,,,,,,,,,left,0,1.9006022161,001,3.0.3,60.30694208362026,ninosDelConv2,2019_Aug_10_0841,201,
,,,10,0,150.0,5,,,,,0,13,13,4,,,,,,,,,,,,,,,,,,left,1,1.86755358384,001,3.0.3,60.30694208362026,ninosDelConv2,2019_Aug_10_0841,201,
,,,25,0,125.0,59,,,,,0,14,14,78,,,,,,,,,,,,,,,,,,right,1,3.55088918761,001,3.0.3,60.30694208362026,ninosDelConv2,2019_Aug_10_0841,201,
,,,25,0,125.0,9,,,,,0,15,15,68,,,,,,,,,,,,,,,,,,right,1,1.49991800814,001,3.0.3,60.30694208362026,ninosDelConv2,2019_Aug_10_0841,201,
,,,5,0,56.0,9,,,,,0,16,16,37,,,,,,,,,,,,,,,,,,right,1,1.64996208838,001,3.0.3,60.30694208362026,ninosDelConv2,2019_Aug_10_0841,201,
,,,5,0,56.0,89,,,,,0,17,17,52,,,,,,,,,,,,,,,,,,left,0,2.25057741292,001,3.0.3,60.30694208362026,ninosDelConv2,2019_Aug_10_0841,201,
,,,10,0,61.0,4,,,,,0,18,18,2,,,,,,,,,,,,,,,,,,left,1,3.75092054502,001,3.0.3,60.30694208362026,ninosDelConv2,2019_Aug_10_0841,201,
,,,10,0,109.0,5,,,,,0,19,19,3,,,,,,,,,,,,,,,,,,left,1,3.38273647198,001,3.0.3,60.30694208362026,ninosDelConv2,2019_Aug_10_0841,201,
,,,10,0,60.0,29,,,,,0,20,20,12,,,,,,,,,,,,,,,,,,right,1,2.73379529794,001,3.0.3,60.30694208362026,ninosDelConv2,2019_Aug_10_0841,201,
,,,10,0,109.0,149,,,,,0,21,21,28,,,,,,,,,,,,,,,,,,right,0,3.91687824338,001,3.0.3,60.30694208362026,ninosDelConv2,2019_Aug_10_0841,201,
,,,25,0,55.0,11,,,,,0,22,22,66,,,,,,,,,,,,,,,,,,right,1,3.36811416145,001,3.0.3,60.30694208362026,ninosDelConv2,2019_Aug_10_0841,201,
,,,25,0,35.0,150,,,,,0,23,23,85,,,,,,,,,,,,,,,,,,right,0,1.68392008494,001,3.0.3,60.30694208362026,ninosDelConv2,2019_Aug_10_0841,201,
,,,5,0,56.0,60,,,,,0,24,24,47,,,,,,,,,,,,,,,,,,left,1,1.45043450547,001,3.0.3,60.30694208362026,ninosDelConv2,2019_Aug_10_0841,201,
,,,5,0,106.0,152,,,,,0,25,25,58,,,,,,,,,,,,,,,,,,right,0,2.3164623724,001,3.0.3,60.30694208362026,ninosDelConv2,2019_Aug_10_0841,201,
,,,10,0,61.0,150,,,,,0,26,26,27,,,,,,,,,,,,,,,,,,left,0,2.73307047956,001,3.0.3,60.30694208362026,ninosDelConv2,2019_Aug_10_0841,201,
,,,5,0,104.0,5,,,,,0,27,27,33,,,,,,,,,,,,,,,,,,right,1,1.36737751984,001,3.0.3,60.30694208362026,ninosDelConv2,2019_Aug_10_0841,201,
,,,10,0,149.0,61,,,,,0,28,28,19,,,,,,,,,,,,,,,,,,left,1,1.33395157082,001,3.0.3,60.30694208362026,ninosDelConv2,2019_Aug_10_0841,201,
,,,10,0,111.0,30,,,,,0,29,29,13,,,,,,,,,,,,,,,,,,right,1,1.20159717064,001,3.0.3,60.30694208362026,ninosDelConv2,2019_Aug_10_0841,201,
,,,10,0,19.0,11,,,,,0,30,30,5,,,,,,,,,,,,,,,,,,right,0,1.68342196511,001,3.0.3,60.30694208362026,ninosDelConv2,2019_Aug_10_0841,201,
,,,5,0,16.0,4,,,,,0,31,31,30,,,,,,,,,,,,,,,,,,left,1,1.3500435662,001,3.0.3,60.30694208362026,ninosDelConv2,2019_Aug_10_0841,201,
,,,25,0,125.0,149,,,,,0,32,32,88,,,,,,,,,,,,,,,,,,left,1,5.6331365357,001,3.0.3,60.30694208362026,ninosDelConv2,2019_Aug_10_0841,201,
,,,5,0,151.0,4,,,,,0,33,33,34,,,,,,,,,,,,,,,,,,right,1,1.61741671656,001,3.0.3,60.30694208362026,ninosDelConv2,2019_Aug_10_0841,201,
,,,5,0,35.0,150,,,,,0,34,34,56,,,,,,,,,,,,,,,,,,left,0,2.23371793257,001,3.0.3,60.30694208362026,ninosDelConv2,2019_Aug_10_0841,201,
,,,25,0,35.0,5,,,,,0,35,35,60,,,,,,,,,,,,,,,,,,left,1,2.21656184216,001,3.0.3,60.30694208362026,ninosDelConv2,2019_Aug_10_0841,201,
,,,10,0,61.0,89,,,,,0,36,36,22,,,,,,,,,,,,,,,,,,right,0,2.86703901424,001,3.0.3,60.30694208362026,ninosDelConv2,2019_Aug_10_0841,201,
,,,5,0,54.0,5,,,,,0,37,37,32,,,,,,,,,,,,,,,,,,right,1,1.00005089151,001,3.0.3,60.30694208362026,ninosDelConv2,2019_Aug_10_0841,201,
,,,25,0,35.0,60,,,,,0,38,38,75,,,,,,,,,,,,,,,,,,left,1,1.4342381568,001,3.0.3,60.30694208362026,ninosDelConv2,2019_Aug_10_0841,201,
,,,25,0,125.0,89,,,,,0,39,39,83,,,,,,,,,,,,,,,,,,left,0,1.23405566707,001,3.0.3,60.30694208362026,ninosDelConv2,2019_Aug_10_0841,201,
,,,10,0,40.0,91,,,,,0,40,40,21,,,,,,,,,,,,,,,,,,left,1,1.41801045072,001,3.0.3,60.30694208362026,ninosDelConv2,2019_Aug_10_0841,201,
,,,10,0,20.0,5,,,,,0,41,41,0,,,,,,,,,,,,,,,,,,right,1,2.58374299278,001,3.0.3,60.30694208362026,ninosDelConv2,2019_Aug_10_0841,201,
,,,10,0,60.0,60,,,,,0,42,42,17,,,,,,,,,,,,,,,,,,right,1,3.04994615269,001,3.0.3,60.30694208362026,ninosDelConv2,2019_Aug_10_0841,201,
,,,25,0,55.0,60,,,,,0,43,43,76,,,,,,,,,,,,,,,,,,right,1,1.56736312629,001,3.0.3,60.30694208362026,ninosDelConv2,2019_Aug_10_0841,201,
,,,25,0,75.0,10,,,,,0,44,44,67,,,,,,,,,,,,,,,,,,right,1,1.55026049766,001,3.0.3,60.30694208362026,ninosDelConv2,2019_Aug_10_0841,201,
,,,25,0,150.0,4,,,,,0,45,45,64,,,,,,,,,,,,,,,,,,left,1,1.10067572602,001,3.0.3,60.30694208362026,ninosDelConv2,2019_Aug_10_0841,201,
,,,5,0,36.0,9,,,,,0,46,46,36,,,,,,,,,,,,,,,,,,left,1,1.65150476914,001,3.0.3,60.30694208362026,ninosDelConv2,2019_Aug_10_0841,201,
,,,5,0,15.0,91,,,,,0,47,47,50,,,,,,,,,,,,,,,,,,right,0,1.7332889532,001,3.0.3,60.30694208362026,ninosDelConv2,2019_Aug_10_0841,201,
,,,10,0,40.0,10,,,,,0,48,48,6,,,,,,,,,,,,,,,,,,right,1,3.28301945957,001,3.0.3,60.30694208362026,ninosDelConv2,2019_Aug_10_0841,201,
,,,10,0,39.0,29,,,,,0,49,49,11,,,,,,,,,,,,,,,,,,right,0,2.21722188953,001,3.0.3,60.30694208362026,ninosDelConv2,2019_Aug_10_0841,201,
,,,25,0,150.0,29,,,,,0,50,50,74,,,,,,,,,,,,,,,,,,right,1,1.18571233965,001,3.0.3,60.30694208362026,ninosDelConv2,2019_Aug_10_0841,201,
,,,25,0,55.0,151,,,,,0,51,51,86,,,,,,,,,,,,,,,,,,right,1,0.183734253835,001,3.0.3,60.30694208362026,ninosDelConv2,2019_Aug_10_0841,201,
,,,5,0,149.0,10,,,,,0,52,52,39,,,,,,,,,,,,,,,,,,right,1,2.0845045661,001,3.0.3,60.30694208362026,ninosDelConv2,2019_Aug_10_0841,201,
,,,10,0,20.0,59,,,,,0,53,53,15,,,,,,,,,,,,,,,,,,left,1,2.18254678548,001,3.0.3,60.30694208362026,ninosDelConv2,2019_Aug_10_0841,201,
,,,10,0,149.0,89,,,,,0,54,54,24,,,,,,,,,,,,,,,,,,left,1,0.334806959261,001,3.0.3,60.30694208362026,ninosDelConv2,2019_Aug_10_0841,201,
,,,10,0,151.0,151,,,,,0,55,55,29,,,,,,,,,,,,,,,,,,right,1,0.235016436927,001,3.0.3,60.30694208362026,ninosDelConv2,2019_Aug_10_0841,201,
,,,10,0,110.0,60,,,,,0,56,56,18,,,,,,,,,,,,,,,,,,left,1,0.200931468658,001,3.0.3,60.30694208362026,ninosDelConv2,2019_Aug_10_0841,201,
,,,25,0,150.0,150,,,,,0,57,57,89,,,,,,,,,,,,,,,,,,left,0,1.35058743702,001,3.0.3,60.30694208362026,ninosDelConv2,2019_Aug_10_0841,201,
,,,10,0,110.0,90,,,,,0,58,58,23,,,,,,,,,,,,,,,,,,left,1,0.567728105729,001,3.0.3,60.30694208362026,ninosDelConv2,2019_Aug_10_0841,201,
,,,5,0,15.0,11,,,,,0,59,59,35,,,,,,,,,,,,,,,,,,right,1,0.417479945405,001,3.0.3,60.30694208362026,ninosDelConv2,2019_Aug_10_0841,201,
,,,10,0,150.0,30,,,,,0,60,60,14,,,,,,,,,,,,,,,,,,left,1,1.23337814186,001,3.0.3,60.30694208362026,ninosDelConv2,2019_Aug_10_0841,201,
,,,25,0,35.0,30,,,,,0,61,61,70,,,,,,,,,,,,,,,,,,right,0,0.167487527709,001,3.0.3,60.30694208362026,ninosDelConv2,2019_Aug_10_0841,201,
,,,5,0,105.0,60,,,,,0,62,62,48,,,,,,,,,,,,,,,,,,left,1,3.11681809888,001,3.0.3,60.30694208362026,ninosDelConv2,2019_Aug_10_0841,201,
,,,5,0,104.0,10,,,,,0,63,63,38,,,,,,,,,,,,,,,,,,right,1,0.234134317579,001,3.0.3,60.30694208362026,ninosDelConv2,2019_Aug_10_0841,201,
,,,25,0,150.0,9,,,,,0,64,64,69,,,,,,,,,,,,,,,,,,right,1,1.00088417556,001,3.0.3,60.30694208362026,ninosDelConv2,2019_Aug_10_0841,201,
,,,10,0,10.01,150,,,,,0,65,65,25,,,,,,,,,,,,,,,,,,right,0,2.33345139475,001,3.0.3,60.30694208362026,ninosDelConv2,2019_Aug_10_0841,201,
,,,25,0,125.0,4,,,,,0,66,66,63,,,,,,,,,,,,,,,,,,right,1,1.85057021613,001,3.0.3,60.30694208362026,ninosDelConv2,2019_Aug_10_0841,201,
,,,10,0,20.0,90,,,,,0,67,67,20,,,,,,,,,,,,,,,,,,right,0,1.7671893755,001,3.0.3,60.30694208362026,ninosDelConv2,2019_Aug_10_0841,201,
,,,5,0,150.0,30,,,,,0,68,68,44,,,,,,,,,,,,,,,,,,right,1,1.15089227192,001,3.0.3,60.30694208362026,ninosDelConv2,2019_Aug_10_0841,201,
,,,5,0,106.0,29,,,,,0,69,69,43,,,,,,,,,,,,,,,,,,right,1,0.583872534771,001,3.0.3,60.30694208362026,ninosDelConv2,2019_Aug_10_0841,201,
,,,5,0,55.0,151,,,,,0,70,70,57,,,,,,,,,,,,,,,,,,right,1,0.667575174186,001,3.0.3,60.30694208362026,ninosDelConv2,2019_Aug_10_0841,201,
,,,10,0,151.0,11,,,,,0,71,71,9,,,,,,,,,,,,,,,,,,right,1,1.150605943,001,3.0.3,60.30694208362026,ninosDelConv2,2019_Aug_10_0841,201,
,,,25,0,150.0,61,,,,,0,72,72,79,,,,,,,,,,,,,,,,,,right,1,1.45122717915,001,3.0.3,60.30694208362026,ninosDelConv2,2019_Aug_10_0841,201,
,,,10,0,39.0,59,,,,,0,73,73,16,,,,,,,,,,,,,,,,,,left,1,1.60213384463,001,3.0.3,60.30694208362026,ninosDelConv2,2019_Aug_10_0841,201,
,,,10,0,39.0,150,,,,,0,74,74,26,,,,,,,,,,,,,,,,,,left,1,1.93489794713,001,3.0.3,60.30694208362026,ninosDelConv2,2019_Aug_10_0841,201,
,,,10,0,39.0,6,,,,,0,75,75,1,,,,,,,,,,,,,,,,,,left,1,1.36742481292,001,3.0.3,60.30694208362026,ninosDelConv2,2019_Aug_10_0841,201,
,,,25,0,75.0,90,,,,,0,76,76,82,,,,,,,,,,,,,,,,,,right,1,1.98409512086,001,3.0.3,60.30694208362026,ninosDelConv2,2019_Aug_10_0841,201,
,,,25,0,55.0,30,,,,,0,77,77,71,,,,,,,,,,,,,,,,,,right,1,1.35064963772,001,3.0.3,60.30694208362026,ninosDelConv2,2019_Aug_10_0841,201,
,,,5,0,35.0,89,,,,,0,78,78,51,,,,,,,,,,,,,,,,,,right,0,4.61743573664,001,3.0.3,60.30694208362026,ninosDelConv2,2019_Aug_10_0841,201,
,,,25,0,75.0,31,,,,,0,79,79,72,,,,,,,,,,,,,,,,,,left,1,0.884778043663,001,3.0.3,60.30694208362026,ninosDelConv2,2019_Aug_10_0841,201,
,,,5,0,104.0,90,,,,,0,80,80,53,,,,,,,,,,,,,,,,,,left,1,0.467231271032,001,3.0.3,60.30694208362026,ninosDelConv2,2019_Aug_10_0841,201,
,,,25,0,75.0,59,,,,,0,81,81,77,,,,,,,,,,,,,,,,,,left,1,0.901694070111,001,3.0.3,60.30694208362026,ninosDelConv2,2019_Aug_10_0841,201,
,,,5,0,35.0,31,,,,,0,82,82,41,,,,,,,,,,,,,,,,,,left,1,0.151222809684,001,3.0.3,60.30694208362026,ninosDelConv2,2019_Aug_10_0841,201,
,,,5,0,149.0,59,,,,,0,83,83,49,,,,,,,,,,,,,,,,,,left,1,1.23418058257,001,3.0.3,60.30694208362026,ninosDelConv2,2019_Aug_10_0841,201,
,,,5,0,14.0,31,,,,,0,84,84,40,,,,,,,,,,,,,,,,,,left,1,0.634504437592,001,3.0.3,60.30694208362026,ninosDelConv2,2019_Aug_10_0841,201,
,,,25,0,125.0,31,,,,,0,85,85,73,,,,,,,,,,,,,,,,,,right,1,0.301026825997,001,3.0.3,60.30694208362026,ninosDelConv2,2019_Aug_10_0841,201,
,,,25,0,35.0,90,,,,,0,86,86,80,,,,,,,,,,,,,,,,,,left,0,1.39995887555,001,3.0.3,60.30694208362026,ninosDelConv2,2019_Aug_10_0841,201,
,,,25,0,55.0,90,,,,,0,87,87,81,,,,,,,,,,,,,,,,,,left,0,1.16704441182,001,3.0.3,60.30694208362026,ninosDelConv2,2019_Aug_10_0841,201,
,,,10,0,21.0,31,,,,,0,88,88,10,,,,,,,,,,,,,,,,,,right,1,0.73360612549,001,3.0.3,60.30694208362026,ninosDelConv2,2019_Aug_10_0841,201,
,,,5,0,15.0,61,,,,,0,89,89,45,,,,,,,,,,,,,,,,,,left,0,1.61726866855,001,3.0.3,60.30694208362026,ninosDelConv2,2019_Aug_10_0841,201,
