key1.keys,key1.rt,key2.keys,key2.rt,key2_2.keys,key2_2.rt,key2_3.keys,key2_3.rt,key3.keys,key3.rt,key4.keys,key4.rt,respP.keys,respP.corr,respP.rt,Practice.thisRepN,Practice.thisTrialN,Practice.thisN,Practice.thisIndex,Practice.ran,ssAmount,llAmount,llDelay,session,participant,date,expName,psychopyVersion,OS,frameRate,key5.keys,key5.rt,respT.keys,respT.corr,trials.thisRepN,trials.thisTrialN,trials.thisN,trials.thisIndex,trials.ran,ss_Amt,ss_Delay,ll_Amt,ll_Delay,respT.rt
space,3.497,space,5.045,space,16.071,space,5.825,right,2.858,space,1.266,right,0,2.97,0,0,0,2,1,10000,19000,89,002,213,2020-11-12_11h33.44.626,tareaTDv3,2020.2.5,Win32,60,,,,,,,,,,,,,,
,,,,,,,,,,,,right,0,6.537,0,1,1,1,1,25000,35000,150,002,213,2020-11-12_11h33.44.626,tareaTDv3,2020.2.5,Win32,60,,,,,,,,,,,,,,
,,,,,,,,,,,,left,1,3.362,0,2,2,0,1,10000,109000,9,002,213,2020-11-12_11h33.44.626,tareaTDv3,2020.2.5,Win32,60,,,,,,,,,,,,,,
,,,,,,,,,,,,,,,,,,,,,,,002,213,2020-11-12_11h33.44.626,tareaTDv3,2020.2.5,Win32,60,g,120.195,,0,0,0,0,1,1,10000,0,39000,6,
,,,,,,,,,,,,,,,,,,,,,,,002,213,2020-11-12_11h33.44.626,tareaTDv3,2020.2.5,Win32,60,,,right,1,0,1,1,22,1,10000,0,61000,89,4.96
,,,,,,,,,,,,,,,,,,,,,,,002,213,2020-11-12_11h33.44.626,tareaTDv3,2020.2.5,Win32,60,,,right,0,0,2,2,21,1,10000,0,40000,91,4.804
,,,,,,,,,,,,,,,,,,,,,,,002,213,2020-11-12_11h33.44.626,tareaTDv3,2020.2.5,Win32,60,,,right,1,0,3,3,88,1,25000,0,125000,149,6.272
,,,,,,,,,,,,,,,,,,,,,,,002,213,2020-11-12_11h33.44.626,tareaTDv3,2020.2.5,Win32,60,,,left,0,0,4,4,51,1,5000,0,35000,89,6.12
,,,,,,,,,,,,,,,,,,,,,,,002,213,2020-11-12_11h33.44.626,tareaTDv3,2020.2.5,Win32,60,,,left,1,0,5,5,49,1,5000,0,149000,59,7.501
,,,,,,,,,,,,,,,,,,,,,,,002,213,2020-11-12_11h33.44.626,tareaTDv3,2020.2.5,Win32,60,,,right,1,0,6,6,6,1,10000,0,40000,10,3.499
,,,,,,,,,,,,,,,,,,,,,,,002,213,2020-11-12_11h33.44.626,tareaTDv3,2020.2.5,Win32,60,,,left,0,0,7,7,75,1,25000,0,35000,60,3.637
,,,,,,,,,,,,,,,,,,,,,,,002,213,2020-11-12_11h33.44.626,tareaTDv3,2020.2.5,Win32,60,,,right,1,0,8,8,12,1,10000,0,60000,29,2.205
,,,,,,,,,,,,,,,,,,,,,,,002,213,2020-11-12_11h33.44.626,tareaTDv3,2020.2.5,Win32,60,,,right,1,0,9,9,66,1,25000,0,55000,11,2.168
,,,,,,,,,,,,,,,,,,,,,,,002,213,2020-11-12_11h33.44.626,tareaTDv3,2020.2.5,Win32,60,,,left,1,0,10,10,36,1,5000,0,36000,9,3.049
,,,,,,,,,,,,,,,,,,,,,,,002,213,2020-11-12_11h33.44.626,tareaTDv3,2020.2.5,Win32,60,,,left,1,0,11,11,4,1,10000,0,150000,5,2.92
,,,,,,,,,,,,,,,,,,,,,,,002,213,2020-11-12_11h33.44.626,tareaTDv3,2020.2.5,Win32,60,,,right,1,0,12,12,42,1,5000,0,56000,29,1.138
,,,,,,,,,,,,,,,,,,,,,,,002,213,2020-11-12_11h33.44.626,tareaTDv3,2020.2.5,Win32,60,,,left,0,0,13,13,20,1,10000,0,20000,90,3.374
,,,,,,,,,,,,,,,,,,,,,,,002,213,2020-11-12_11h33.44.626,tareaTDv3,2020.2.5,Win32,60,,,right,0,0,14,14,55,1,5000,0,14000,149,2.086
,,,,,,,,,,,,,,,,,,,,,,,002,213,2020-11-12_11h33.44.626,tareaTDv3,2020.2.5,Win32,60,,,left,1,0,15,15,86,1,25000,0,55000,151,4.21
,,,,,,,,,,,,,,,,,,,,,,,002,213,2020-11-12_11h33.44.626,tareaTDv3,2020.2.5,Win32,60,,,left,1,0,16,16,74,1,25000,0,150000,29,2.427
,,,,,,,,,,,,,,,,,,,,,,,002,213,2020-11-12_11h33.44.626,tareaTDv3,2020.2.5,Win32,60,,,right,1,0,17,17,37,1,5000,0,56000,9,0.734
,,,,,,,,,,,,,,,,,,,,,,,002,213,2020-11-12_11h33.44.626,tareaTDv3,2020.2.5,Win32,60,,,right,1,0,18,18,58,1,5000,0,106000,152,3.107
,,,,,,,,,,,,,,,,,,,,,,,002,213,2020-11-12_11h33.44.626,tareaTDv3,2020.2.5,Win32,60,,,right,0,0,19,19,57,1,5000,0,55000,151,1.15
,,,,,,,,,,,,,,,,,,,,,,,002,213,2020-11-12_11h33.44.626,tareaTDv3,2020.2.5,Win32,60,,,left,0,0,20,20,80,1,25000,0,35000,90,1.473
,,,,,,,,,,,,,,,,,,,,,,,002,213,2020-11-12_11h33.44.626,tareaTDv3,2020.2.5,Win32,60,,,left,1,0,21,21,2,1,10000,0,61000,4,2.44
,,,,,,,,,,,,,,,,,,,,,,,002,213,2020-11-12_11h33.44.626,tareaTDv3,2020.2.5,Win32,60,,,left,1,0,22,22,11,1,10000,0,39000,29,2.401
,,,,,,,,,,,,,,,,,,,,,,,002,213,2020-11-12_11h33.44.626,tareaTDv3,2020.2.5,Win32,60,,,right,1,0,23,23,59,1,5000,0,151000,150,6.697
,,,,,,,,,,,,,,,,,,,,,,,002,213,2020-11-12_11h33.44.626,tareaTDv3,2020.2.5,Win32,60,,,right,1,0,24,24,30,1,5000,0,16000,4,1.236
,,,,,,,,,,,,,,,,,,,,,,,002,213,2020-11-12_11h33.44.626,tareaTDv3,2020.2.5,Win32,60,,,right,0,0,25,25,27,1,10000,0,61000,150,5.502
,,,,,,,,,,,,,,,,,,,,,,,002,213,2020-11-12_11h33.44.626,tareaTDv3,2020.2.5,Win32,60,,,right,1,0,26,26,77,1,25000,0,75000,59,1.418
,,,,,,,,,,,,,,,,,,,,,,,002,213,2020-11-12_11h33.44.626,tareaTDv3,2020.2.5,Win32,60,,,left,1,0,27,27,83,1,25000,0,125000,89,2.873
,,,,,,,,,,,,,,,,,,,,,,,002,213,2020-11-12_11h33.44.626,tareaTDv3,2020.2.5,Win32,60,,,right,1,0,28,28,46,1,5000,0,36000,61,2.33
,,,,,,,,,,,,,,,,,,,,,,,002,213,2020-11-12_11h33.44.626,tareaTDv3,2020.2.5,Win32,60,,,left,1,0,29,29,9,1,10000,0,151000,11,2.083
,,,,,,,,,,,,,,,,,,,,,,,002,213,2020-11-12_11h33.44.626,tareaTDv3,2020.2.5,Win32,60,,,left,1,0,30,30,3,1,10000,0,109000,5,1.296
,,,,,,,,,,,,,,,,,,,,,,,002,213,2020-11-12_11h33.44.626,tareaTDv3,2020.2.5,Win32,60,,,right,1,0,31,31,7,1,10000,0,59000,9,1.199
,,,,,,,,,,,,,,,,,,,,,,,002,213,2020-11-12_11h33.44.626,tareaTDv3,2020.2.5,Win32,60,,,left,1,0,32,32,52,1,5000,0,56000,89,0.753
,,,,,,,,,,,,,,,,,,,,,,,002,213,2020-11-12_11h33.44.626,tareaTDv3,2020.2.5,Win32,60,,,left,1,0,33,33,53,1,5000,0,104000,90,2.057
,,,,,,,,,,,,,,,,,,,,,,,002,213,2020-11-12_11h33.44.626,tareaTDv3,2020.2.5,Win32,60,,,right,1,0,34,34,87,1,25000,0,75000,151,1.33
,,,,,,,,,,,,,,,,,,,,,,,002,213,2020-11-12_11h33.44.626,tareaTDv3,2020.2.5,Win32,60,,,right,1,0,35,35,61,1,25000,0,55000,6,1.267
,,,,,,,,,,,,,,,,,,,,,,,002,213,2020-11-12_11h33.44.626,tareaTDv3,2020.2.5,Win32,60,,,right,1,0,36,36,43,1,5000,0,106000,29,1.417
,,,,,,,,,,,,,,,,,,,,,,,002,213,2020-11-12_11h33.44.626,tareaTDv3,2020.2.5,Win32,60,,,left,1,0,37,37,23,1,10000,0,110000,90,4.541
,,,,,,,,,,,,,,,,,,,,,,,002,213,2020-11-12_11h33.44.626,tareaTDv3,2020.2.5,Win32,60,,,left,1,0,38,38,84,1,25000,0,150000,89,2.107
,,,,,,,,,,,,,,,,,,,,,,,002,213,2020-11-12_11h33.44.626,tareaTDv3,2020.2.5,Win32,60,,,left,1,0,39,39,60,1,25000,0,35000,5,1.996
,,,,,,,,,,,,,,,,,,,,,,,002,213,2020-11-12_11h33.44.626,tareaTDv3,2020.2.5,Win32,60,,,left,1,0,40,40,67,1,25000,0,75000,10,1.393
,,,,,,,,,,,,,,,,,,,,,,,002,213,2020-11-12_11h33.44.626,tareaTDv3,2020.2.5,Win32,60,,,right,1,0,41,41,68,1,25000,0,125000,9,1.288
,,,,,,,,,,,,,,,,,,,,,,,002,213,2020-11-12_11h33.44.626,tareaTDv3,2020.2.5,Win32,60,,,left,1,0,42,42,63,1,25000,0,125000,4,2.79
,,,,,,,,,,,,,,,,,,,,,,,002,213,2020-11-12_11h33.44.626,tareaTDv3,2020.2.5,Win32,60,,,left,1,0,43,43,40,1,5000,0,14000,31,1.98
,,,,,,,,,,,,,,,,,,,,,,,002,213,2020-11-12_11h33.44.626,tareaTDv3,2020.2.5,Win32,60,,,right,1,0,44,44,28,1,10000,0,109000,149,2.568
,,,,,,,,,,,,,,,,,,,,,,,002,213,2020-11-12_11h33.44.626,tareaTDv3,2020.2.5,Win32,60,,,right,1,0,45,45,73,1,25000,0,125000,31,1.445
,,,,,,,,,,,,,,,,,,,,,,,002,213,2020-11-12_11h33.44.626,tareaTDv3,2020.2.5,Win32,60,,,right,1,0,46,46,29,1,10000,0,151000,151,2.407
,,,,,,,,,,,,,,,,,,,,,,,002,213,2020-11-12_11h33.44.626,tareaTDv3,2020.2.5,Win32,60,,,right,1,0,47,47,76,1,25000,0,55000,60,2.483
,,,,,,,,,,,,,,,,,,,,,,,002,213,2020-11-12_11h33.44.626,tareaTDv3,2020.2.5,Win32,60,,,right,1,0,48,48,65,1,25000,0,35000,11,4.927
,,,,,,,,,,,,,,,,,,,,,,,002,213,2020-11-12_11h33.44.626,tareaTDv3,2020.2.5,Win32,60,,,left,0,0,49,49,45,1,5000,0,15000,61,3.184
,,,,,,,,,,,,,,,,,,,,,,,002,213,2020-11-12_11h33.44.626,tareaTDv3,2020.2.5,Win32,60,,,left,0,0,50,50,70,1,25000,0,35000,30,2.941
,,,,,,,,,,,,,,,,,,,,,,,002,213,2020-11-12_11h33.44.626,tareaTDv3,2020.2.5,Win32,60,,,left,0,0,51,51,50,1,5000,0,15000,91,1.817
,,,,,,,,,,,,,,,,,,,,,,,002,213,2020-11-12_11h33.44.626,tareaTDv3,2020.2.5,Win32,60,,,left,1,0,52,52,41,1,5000,0,35000,31,5.377
,,,,,,,,,,,,,,,,,,,,,,,002,213,2020-11-12_11h33.44.626,tareaTDv3,2020.2.5,Win32,60,,,left,1,0,53,53,47,1,5000,0,56000,60,4.262
,,,,,,,,,,,,,,,,,,,,,,,002,213,2020-11-12_11h33.44.626,tareaTDv3,2020.2.5,Win32,60,,,right,0,0,54,54,25,1,10000,0,10000,150,3.526
,,,,,,,,,,,,,,,,,,,,,,,002,213,2020-11-12_11h33.44.626,tareaTDv3,2020.2.5,Win32,60,,,left,1,0,55,55,81,1,25000,0,55000,90,4.314
,,,,,,,,,,,,,,,,,,,,,,,002,213,2020-11-12_11h33.44.626,tareaTDv3,2020.2.5,Win32,60,,,right,1,0,56,56,48,1,5000,0,105000,60,1.307
,,,,,,,,,,,,,,,,,,,,,,,002,213,2020-11-12_11h33.44.626,tareaTDv3,2020.2.5,Win32,60,,,right,1,0,57,57,72,1,25000,0,75000,31,1.928
,,,,,,,,,,,,,,,,,,,,,,,002,213,2020-11-12_11h33.44.626,tareaTDv3,2020.2.5,Win32,60,,,left,1,0,58,58,89,1,25000,0,150000,150,2.798
,,,,,,,,,,,,,,,,,,,,,,,002,213,2020-11-12_11h33.44.626,tareaTDv3,2020.2.5,Win32,60,,,right,1,0,59,59,31,1,5000,0,35000,6,2.556
,,,,,,,,,,,,,,,,,,,,,,,002,213,2020-11-12_11h33.44.626,tareaTDv3,2020.2.5,Win32,60,,,left,1,0,60,60,5,1,10000,0,19000,11,2.287
,,,,,,,,,,,,,,,,,,,,,,,002,213,2020-11-12_11h33.44.626,tareaTDv3,2020.2.5,Win32,60,,,left,1,0,61,61,38,1,5000,0,104000,10,1.643
,,,,,,,,,,,,,,,,,,,,,,,002,213,2020-11-12_11h33.44.626,tareaTDv3,2020.2.5,Win32,60,,,left,1,0,62,62,64,1,25000,0,150000,4,1.902
,,,,,,,,,,,,,,,,,,,,,,,002,213,2020-11-12_11h33.44.626,tareaTDv3,2020.2.5,Win32,60,,,left,1,0,63,63,0,1,10000,0,20000,5,1.971
,,,,,,,,,,,,,,,,,,,,,,,002,213,2020-11-12_11h33.44.626,tareaTDv3,2020.2.5,Win32,60,,,left,1,0,64,64,14,1,10000,0,150000,30,2.314
,,,,,,,,,,,,,,,,,,,,,,,002,213,2020-11-12_11h33.44.626,tareaTDv3,2020.2.5,Win32,60,,,right,1,0,65,65,82,1,25000,0,75000,90,2.596
,,,,,,,,,,,,,,,,,,,,,,,002,213,2020-11-12_11h33.44.626,tareaTDv3,2020.2.5,Win32,60,,,right,1,0,66,66,24,1,10000,0,149000,89,1.898
,,,,,,,,,,,,,,,,,,,,,,,002,213,2020-11-12_11h33.44.626,tareaTDv3,2020.2.5,Win32,60,,,right,1,0,67,67,39,1,5000,0,149000,10,1.858
,,,,,,,,,,,,,,,,,,,,,,,002,213,2020-11-12_11h33.44.626,tareaTDv3,2020.2.5,Win32,60,,,left,0,0,68,68,56,1,5000,0,35000,150,3.354
,,,,,,,,,,,,,,,,,,,,,,,002,213,2020-11-12_11h33.44.626,tareaTDv3,2020.2.5,Win32,60,,,right,1,0,69,69,32,1,5000,0,54000,5,2.074
,,,,,,,,,,,,,,,,,,,,,,,002,213,2020-11-12_11h33.44.626,tareaTDv3,2020.2.5,Win32,60,,,left,1,0,70,70,33,1,5000,0,104000,5,0.888
,,,,,,,,,,,,,,,,,,,,,,,002,213,2020-11-12_11h33.44.626,tareaTDv3,2020.2.5,Win32,60,,,right,0,0,71,71,85,1,25000,0,35000,150,2.137
,,,,,,,,,,,,,,,,,,,,,,,002,213,2020-11-12_11h33.44.626,tareaTDv3,2020.2.5,Win32,60,,,left,1,0,72,72,19,1,10000,0,149000,61,3.54
,,,,,,,,,,,,,,,,,,,,,,,002,213,2020-11-12_11h33.44.626,tareaTDv3,2020.2.5,Win32,60,,,left,0,0,73,73,16,1,10000,0,39000,59,2.199
,,,,,,,,,,,,,,,,,,,,,,,002,213,2020-11-12_11h33.44.626,tareaTDv3,2020.2.5,Win32,60,,,left,1,0,74,74,35,1,5000,0,15000,11,4.081
,,,,,,,,,,,,,,,,,,,,,,,002,213,2020-11-12_11h33.44.626,tareaTDv3,2020.2.5,Win32,60,,,left,1,0,75,75,69,1,25000,0,150000,9,1.451
,,,,,,,,,,,,,,,,,,,,,,,002,213,2020-11-12_11h33.44.626,tareaTDv3,2020.2.5,Win32,60,,,right,1,0,76,76,13,1,10000,0,111000,30,2.602
,,,,,,,,,,,,,,,,,,,,,,,002,213,2020-11-12_11h33.44.626,tareaTDv3,2020.2.5,Win32,60,,,right,0,0,77,77,15,1,10000,0,20000,59,2.124
,,,,,,,,,,,,,,,,,,,,,,,002,213,2020-11-12_11h33.44.626,tareaTDv3,2020.2.5,Win32,60,,,left,1,0,78,78,62,1,25000,0,75000,5,2.082
,,,,,,,,,,,,,,,,,,,,,,,002,213,2020-11-12_11h33.44.626,tareaTDv3,2020.2.5,Win32,60,,,left,1,0,79,79,54,1,5000,0,150000,90,2.623
,,,,,,,,,,,,,,,,,,,,,,,002,213,2020-11-12_11h33.44.626,tareaTDv3,2020.2.5,Win32,60,,,right,0,0,80,80,17,1,10000,0,60000,60,3.025
,,,,,,,,,,,,,,,,,,,,,,,002,213,2020-11-12_11h33.44.626,tareaTDv3,2020.2.5,Win32,60,,,left,1,0,81,81,79,1,25000,0,150000,61,2.908
,,,,,,,,,,,,,,,,,,,,,,,002,213,2020-11-12_11h33.44.626,tareaTDv3,2020.2.5,Win32,60,,,right,1,0,82,82,44,1,5000,0,150000,30,4.26
,,,,,,,,,,,,,,,,,,,,,,,002,213,2020-11-12_11h33.44.626,tareaTDv3,2020.2.5,Win32,60,,,left,0,0,83,83,26,1,10000,0,39000,150,1.729
,,,,,,,,,,,,,,,,,,,,,,,002,213,2020-11-12_11h33.44.626,tareaTDv3,2020.2.5,Win32,60,,,right,1,0,84,84,34,1,5000,0,151000,4,0.867
,,,,,,,,,,,,,,,,,,,,,,,002,213,2020-11-12_11h33.44.626,tareaTDv3,2020.2.5,Win32,60,,,left,1,0,85,85,78,1,25000,0,125000,59,4.115
,,,,,,,,,,,,,,,,,,,,,,,002,213,2020-11-12_11h33.44.626,tareaTDv3,2020.2.5,Win32,60,,,left,1,0,86,86,8,1,10000,0,111000,10,1.419
,,,,,,,,,,,,,,,,,,,,,,,002,213,2020-11-12_11h33.44.626,tareaTDv3,2020.2.5,Win32,60,,,right,1,0,87,87,18,1,10000,0,110000,60,1.774
,,,,,,,,,,,,,,,,,,,,,,,002,213,2020-11-12_11h33.44.626,tareaTDv3,2020.2.5,Win32,60,,,right,1,0,88,88,71,1,25000,0,55000,30,2.368
,,,,,,,,,,,,,,,,,,,,,,,002,213,2020-11-12_11h33.44.626,tareaTDv3,2020.2.5,Win32,60,,,right,1,0,89,89,10,1,10000,0,21000,31,1.427
