key1.keys,key1.rt,key2.keys,key2.rt,key2_2.keys,key2_2.rt,key2_3.keys,key2_3.rt,key3.keys,key3.rt,key4.keys,key4.rt,respP.keys,respP.corr,Practice.thisRepN,Practice.thisTrialN,Practice.thisN,Practice.thisIndex,Practice.ran,ssAmount,llAmount,llDelay,session,participant,date,expName,psychopyVersion,OS,frameRate,respP.rt,key5.keys,key5.rt,respT.keys,respT.corr,respT.rt,trials.thisRepN,trials.thisTrialN,trials.thisN,trials.thisIndex,trials.ran,ss_Amt,ss_Delay,ll_Amt,ll_Delay,key_resp_4.keys,key_resp_4.rt
space,8.57175,space,27.53161,space,17.18023,space,4.9055,space,9.814805,space,3.585065,,0,0,0,0,1,1,25000,35000,150,002,226,2020-11-12_11h20.30.823,tareaTDv3,2020.2.5,Win32,60,,,,,,,,,,,,,,,,,
,,,,,,,,,,,,left,1,0,1,1,0,1,10000,109000,9,002,226,2020-11-12_11h20.30.823,tareaTDv3,2020.2.5,Win32,60,4.389535,,,,,,,,,,,,,,,,
,,,,,,,,,,,,left,0,0,2,2,2,1,10000,19000,89,002,226,2020-11-12_11h20.30.823,tareaTDv3,2020.2.5,Win32,60,6.801995,,,,,,,,,,,,,,,,
,,,,,,,,,,,,,,,,,,,,,,002,226,2020-11-12_11h20.30.823,tareaTDv3,2020.2.5,Win32,60,,g,50.38369,right,0,6.16073,0,0,0,50,1,5000,0,15000,91,,
,,,,,,,,,,,,,,,,,,,,,,002,226,2020-11-12_11h20.30.823,tareaTDv3,2020.2.5,Win32,60,,,,right,1,3.822545,0,1,1,48,1,5000,0,105000,60,,
,,,,,,,,,,,,,,,,,,,,,,002,226,2020-11-12_11h20.30.823,tareaTDv3,2020.2.5,Win32,60,,,,right,1,7.055615,0,2,2,77,1,25000,0,75000,59,,
,,,,,,,,,,,,,,,,,,,,,,002,226,2020-11-12_11h20.30.823,tareaTDv3,2020.2.5,Win32,60,,,,right,1,4.70878,0,3,3,11,1,10000,0,39000,29,,
,,,,,,,,,,,,,,,,,,,,,,002,226,2020-11-12_11h20.30.823,tareaTDv3,2020.2.5,Win32,60,,,,right,1,9.61165,0,4,4,89,1,25000,0,150000,150,,
,,,,,,,,,,,,,,,,,,,,,,002,226,2020-11-12_11h20.30.823,tareaTDv3,2020.2.5,Win32,60,,,,right,1,3.08676,0,5,5,39,1,5000,0,149000,10,,
,,,,,,,,,,,,,,,,,,,,,,002,226,2020-11-12_11h20.30.823,tareaTDv3,2020.2.5,Win32,60,,,,right,0,3.23788,0,6,6,86,1,25000,0,55000,151,,
,,,,,,,,,,,,,,,,,,,,,,002,226,2020-11-12_11h20.30.823,tareaTDv3,2020.2.5,Win32,60,,,,right,1,11.409055,0,7,7,10,1,10000,0,21000,31,,
,,,,,,,,,,,,,,,,,,,,,,002,226,2020-11-12_11h20.30.823,tareaTDv3,2020.2.5,Win32,60,,,,right,1,2.20621,0,8,8,67,1,25000,0,75000,10,,
,,,,,,,,,,,,,,,,,,,,,,002,226,2020-11-12_11h20.30.823,tareaTDv3,2020.2.5,Win32,60,,,,left,1,15.624445,0,9,9,22,1,10000,0,61000,89,,
,,,,,,,,,,,,,,,,,,,,,,002,226,2020-11-12_11h20.30.823,tareaTDv3,2020.2.5,Win32,60,,,,left,1,7.664875,0,10,10,49,1,5000,0,149000,59,,
,,,,,,,,,,,,,,,,,,,,,,002,226,2020-11-12_11h20.30.823,tareaTDv3,2020.2.5,Win32,60,,,,right,1,2.9162,0,11,11,36,1,5000,0,36000,9,,
,,,,,,,,,,,,,,,,,,,,,,002,226,2020-11-12_11h20.30.823,tareaTDv3,2020.2.5,Win32,60,,,,right,0,2.520165,0,12,12,55,1,5000,0,14000,149,,
,,,,,,,,,,,,,,,,,,,,,,002,226,2020-11-12_11h20.30.823,tareaTDv3,2020.2.5,Win32,60,,,,left,1,2.122735,0,13,13,31,1,5000,0,35000,6,,
,,,,,,,,,,,,,,,,,,,,,,002,226,2020-11-12_11h20.30.823,tareaTDv3,2020.2.5,Win32,60,,,,right,1,16.640645,0,14,14,82,1,25000,0,75000,90,,
,,,,,,,,,,,,,,,,,,,,,,002,226,2020-11-12_11h20.30.823,tareaTDv3,2020.2.5,Win32,60,,,,right,1,3.029365,0,15,15,1,1,10000,0,39000,6,,
,,,,,,,,,,,,,,,,,,,,,,002,226,2020-11-12_11h20.30.823,tareaTDv3,2020.2.5,Win32,60,,,,right,0,3.083375,0,16,16,26,1,10000,0,39000,150,,
,,,,,,,,,,,,,,,,,,,,,,002,226,2020-11-12_11h20.30.823,tareaTDv3,2020.2.5,Win32,60,,,,right,0,4.13421,0,17,17,51,1,5000,0,35000,89,,
,,,,,,,,,,,,,,,,,,,,,,002,226,2020-11-12_11h20.30.823,tareaTDv3,2020.2.5,Win32,60,,,,right,1,4.0597,0,18,18,38,1,5000,0,104000,10,,
,,,,,,,,,,,,,,,,,,,,,,002,226,2020-11-12_11h20.30.823,tareaTDv3,2020.2.5,Win32,60,,,,left,1,2.37003,0,19,19,78,1,25000,0,125000,59,,
,,,,,,,,,,,,,,,,,,,,,,002,226,2020-11-12_11h20.30.823,tareaTDv3,2020.2.5,Win32,60,,,,right,0,9.438145,0,20,20,81,1,25000,0,55000,90,,
,,,,,,,,,,,,,,,,,,,,,,002,226,2020-11-12_11h20.30.823,tareaTDv3,2020.2.5,Win32,60,,,,right,0,16.059285,0,21,21,76,1,25000,0,55000,60,,
,,,,,,,,,,,,,,,,,,,,,,002,226,2020-11-12_11h20.30.823,tareaTDv3,2020.2.5,Win32,60,,,,left,1,4.138745,0,22,22,71,1,25000,0,55000,30,,
,,,,,,,,,,,,,,,,,,,,,,002,226,2020-11-12_11h20.30.823,tareaTDv3,2020.2.5,Win32,60,,,,right,0,3.92013,0,23,23,21,1,10000,0,40000,91,,
,,,,,,,,,,,,,,,,,,,,,,002,226,2020-11-12_11h20.30.823,tareaTDv3,2020.2.5,Win32,60,,,,right,1,2.151945,0,24,24,79,1,25000,0,150000,61,,
,,,,,,,,,,,,,,,,,,,,,,002,226,2020-11-12_11h20.30.823,tareaTDv3,2020.2.5,Win32,60,,,,left,1,2.943395,0,25,25,35,1,5000,0,15000,11,,
,,,,,,,,,,,,,,,,,,,,,,002,226,2020-11-12_11h20.30.823,tareaTDv3,2020.2.5,Win32,60,,,,right,1,2.51859,0,26,26,14,1,10000,0,150000,30,,
,,,,,,,,,,,,,,,,,,,,,,002,226,2020-11-12_11h20.30.823,tareaTDv3,2020.2.5,Win32,60,,,,left,1,3.406765,0,27,27,6,1,10000,0,40000,10,,
,,,,,,,,,,,,,,,,,,,,,,002,226,2020-11-12_11h20.30.823,tareaTDv3,2020.2.5,Win32,60,,,,left,0,11.15511,0,28,28,80,1,25000,0,35000,90,,
,,,,,,,,,,,,,,,,,,,,,,002,226,2020-11-12_11h20.30.823,tareaTDv3,2020.2.5,Win32,60,,,,right,1,2.420045,0,29,29,74,1,25000,0,150000,29,,
,,,,,,,,,,,,,,,,,,,,,,002,226,2020-11-12_11h20.30.823,tareaTDv3,2020.2.5,Win32,60,,,,left,1,9.96834,0,30,30,58,1,5000,0,106000,152,,
,,,,,,,,,,,,,,,,,,,,,,002,226,2020-11-12_11h20.30.823,tareaTDv3,2020.2.5,Win32,60,,,,right,1,1.9542,0,31,31,53,1,5000,0,104000,90,,
,,,,,,,,,,,,,,,,,,,,,,002,226,2020-11-12_11h20.30.823,tareaTDv3,2020.2.5,Win32,60,,,,right,1,6.172585,0,32,32,52,1,5000,0,56000,89,,
,,,,,,,,,,,,,,,,,,,,,,002,226,2020-11-12_11h20.30.823,tareaTDv3,2020.2.5,Win32,60,,,,left,1,2.539255,0,33,33,66,1,25000,0,55000,11,,
,,,,,,,,,,,,,,,,,,,,,,002,226,2020-11-12_11h20.30.823,tareaTDv3,2020.2.5,Win32,60,,,,left,1,2.48987,0,34,34,8,1,10000,0,111000,10,,
,,,,,,,,,,,,,,,,,,,,,,002,226,2020-11-12_11h20.30.823,tareaTDv3,2020.2.5,Win32,60,,,,right,1,2.691585,0,35,35,42,1,5000,0,56000,29,,
,,,,,,,,,,,,,,,,,,,,,,002,226,2020-11-12_11h20.30.823,tareaTDv3,2020.2.5,Win32,60,,,,left,0,16.521445,0,36,36,56,1,5000,0,35000,150,,
,,,,,,,,,,,,,,,,,,,,,,002,226,2020-11-12_11h20.30.823,tareaTDv3,2020.2.5,Win32,60,,,,right,1,8.068405,0,37,37,37,1,5000,0,56000,9,,
,,,,,,,,,,,,,,,,,,,,,,002,226,2020-11-12_11h20.30.823,tareaTDv3,2020.2.5,Win32,60,,,,left,0,10.45896,0,38,38,75,1,25000,0,35000,60,,
,,,,,,,,,,,,,,,,,,,,,,002,226,2020-11-12_11h20.30.823,tareaTDv3,2020.2.5,Win32,60,,,,right,1,4.87633,0,39,39,41,1,5000,0,35000,31,,
,,,,,,,,,,,,,,,,,,,,,,002,226,2020-11-12_11h20.30.823,tareaTDv3,2020.2.5,Win32,60,,,,left,1,4.37289,0,40,40,72,1,25000,0,75000,31,,
,,,,,,,,,,,,,,,,,,,,,,002,226,2020-11-12_11h20.30.823,tareaTDv3,2020.2.5,Win32,60,,,,left,1,8.49791,0,41,41,27,1,10000,0,61000,150,,
,,,,,,,,,,,,,,,,,,,,,,002,226,2020-11-12_11h20.30.823,tareaTDv3,2020.2.5,Win32,60,,,,right,1,1.77274,0,42,42,34,1,5000,0,151000,4,,
,,,,,,,,,,,,,,,,,,,,,,002,226,2020-11-12_11h20.30.823,tareaTDv3,2020.2.5,Win32,60,,,,left,1,1.870735,0,43,43,17,1,10000,0,60000,60,,
,,,,,,,,,,,,,,,,,,,,,,002,226,2020-11-12_11h20.30.823,tareaTDv3,2020.2.5,Win32,60,,,,right,1,4.35089,0,44,44,70,1,25000,0,35000,30,,
,,,,,,,,,,,,,,,,,,,,,,002,226,2020-11-12_11h20.30.823,tareaTDv3,2020.2.5,Win32,60,,,,right,1,6.40434,0,45,45,29,1,10000,0,151000,151,,
,,,,,,,,,,,,,,,,,,,,,,002,226,2020-11-12_11h20.30.823,tareaTDv3,2020.2.5,Win32,60,,,,left,1,10.021835,0,46,46,28,1,10000,0,109000,149,,
,,,,,,,,,,,,,,,,,,,,,,002,226,2020-11-12_11h20.30.823,tareaTDv3,2020.2.5,Win32,60,,,,right,0,6.60862,0,47,47,15,1,10000,0,20000,59,,
,,,,,,,,,,,,,,,,,,,,,,002,226,2020-11-12_11h20.30.823,tareaTDv3,2020.2.5,Win32,60,,,,right,1,5.316765,0,48,48,73,1,25000,0,125000,31,,
,,,,,,,,,,,,,,,,,,,,,,002,226,2020-11-12_11h20.30.823,tareaTDv3,2020.2.5,Win32,60,,,,left,1,2.303145,0,49,49,62,1,25000,0,75000,5,,
,,,,,,,,,,,,,,,,,,,,,,002,226,2020-11-12_11h20.30.823,tareaTDv3,2020.2.5,Win32,60,,,,right,1,1.363995,0,50,50,64,1,25000,0,150000,4,,
,,,,,,,,,,,,,,,,,,,,,,002,226,2020-11-12_11h20.30.823,tareaTDv3,2020.2.5,Win32,60,,,,right,1,4.0274,0,51,51,60,1,25000,0,35000,5,,
,,,,,,,,,,,,,,,,,,,,,,002,226,2020-11-12_11h20.30.823,tareaTDv3,2020.2.5,Win32,60,,,,left,1,4.0446,0,52,52,65,1,25000,0,35000,11,,
,,,,,,,,,,,,,,,,,,,,,,002,226,2020-11-12_11h20.30.823,tareaTDv3,2020.2.5,Win32,60,,,,right,1,1.455795,0,53,53,2,1,10000,0,61000,4,,
,,,,,,,,,,,,,,,,,,,,,,002,226,2020-11-12_11h20.30.823,tareaTDv3,2020.2.5,Win32,60,,,,right,1,5.550055,0,54,54,0,1,10000,0,20000,5,,
,,,,,,,,,,,,,,,,,,,,,,002,226,2020-11-12_11h20.30.823,tareaTDv3,2020.2.5,Win32,60,,,,left,1,1.30821,0,55,55,4,1,10000,0,150000,5,,
,,,,,,,,,,,,,,,,,,,,,,002,226,2020-11-12_11h20.30.823,tareaTDv3,2020.2.5,Win32,60,,,,right,0,1.7877,0,56,56,85,1,25000,0,35000,150,,
,,,,,,,,,,,,,,,,,,,,,,002,226,2020-11-12_11h20.30.823,tareaTDv3,2020.2.5,Win32,60,,,,left,1,1.60514,0,57,57,63,1,25000,0,125000,4,,
,,,,,,,,,,,,,,,,,,,,,,002,226,2020-11-12_11h20.30.823,tareaTDv3,2020.2.5,Win32,60,,,,right,0,1.65623,0,58,58,20,1,10000,0,20000,90,,
,,,,,,,,,,,,,,,,,,,,,,002,226,2020-11-12_11h20.30.823,tareaTDv3,2020.2.5,Win32,60,,,,left,0,4.190725,0,59,59,25,1,10000,0,10000,150,,
,,,,,,,,,,,,,,,,,,,,,,002,226,2020-11-12_11h20.30.823,tareaTDv3,2020.2.5,Win32,60,,,,right,1,5.098985,0,60,60,84,1,25000,0,150000,89,,
,,,,,,,,,,,,,,,,,,,,,,002,226,2020-11-12_11h20.30.823,tareaTDv3,2020.2.5,Win32,60,,,,left,1,1.71938,0,61,61,43,1,5000,0,106000,29,,
,,,,,,,,,,,,,,,,,,,,,,002,226,2020-11-12_11h20.30.823,tareaTDv3,2020.2.5,Win32,60,,,,right,1,5.371665,0,62,62,46,1,5000,0,36000,61,,
,,,,,,,,,,,,,,,,,,,,,,002,226,2020-11-12_11h20.30.823,tareaTDv3,2020.2.5,Win32,60,,,,right,1,4.420135,0,63,63,30,1,5000,0,16000,4,,
,,,,,,,,,,,,,,,,,,,,,,002,226,2020-11-12_11h20.30.823,tareaTDv3,2020.2.5,Win32,60,,,,left,1,2.836315,0,64,64,69,1,25000,0,150000,9,,
,,,,,,,,,,,,,,,,,,,,,,002,226,2020-11-12_11h20.30.823,tareaTDv3,2020.2.5,Win32,60,,,,left,0,4.24621,0,65,65,88,1,25000,0,125000,149,,
,,,,,,,,,,,,,,,,,,,,,,002,226,2020-11-12_11h20.30.823,tareaTDv3,2020.2.5,Win32,60,,,,right,1,2.63275,0,66,66,12,1,10000,0,60000,29,,
,,,,,,,,,,,,,,,,,,,,,,002,226,2020-11-12_11h20.30.823,tareaTDv3,2020.2.5,Win32,60,,,,left,1,7.05133,0,67,67,24,1,10000,0,149000,89,,
,,,,,,,,,,,,,,,,,,,,,,002,226,2020-11-12_11h20.30.823,tareaTDv3,2020.2.5,Win32,60,,,,right,0,1.17247,0,68,68,57,1,5000,0,55000,151,,
,,,,,,,,,,,,,,,,,,,,,,002,226,2020-11-12_11h20.30.823,tareaTDv3,2020.2.5,Win32,60,,,,left,1,6.60267,0,69,69,83,1,25000,0,125000,89,,
,,,,,,,,,,,,,,,,,,,,,,002,226,2020-11-12_11h20.30.823,tareaTDv3,2020.2.5,Win32,60,,,,left,1,3.609965,0,70,70,23,1,10000,0,110000,90,,
,,,,,,,,,,,,,,,,,,,,,,002,226,2020-11-12_11h20.30.823,tareaTDv3,2020.2.5,Win32,60,,,,right,1,1.57115,0,71,71,3,1,10000,0,109000,5,,
,,,,,,,,,,,,,,,,,,,,,,002,226,2020-11-12_11h20.30.823,tareaTDv3,2020.2.5,Win32,60,,,,left,1,2.393375,0,72,72,5,1,10000,0,19000,11,,
,,,,,,,,,,,,,,,,,,,,,,002,226,2020-11-12_11h20.30.823,tareaTDv3,2020.2.5,Win32,60,,,,left,1,4.385585,0,73,73,47,1,5000,0,56000,60,,
,,,,,,,,,,,,,,,,,,,,,,002,226,2020-11-12_11h20.30.823,tareaTDv3,2020.2.5,Win32,60,,,,right,1,1.139155,0,74,74,7,1,10000,0,59000,9,,
,,,,,,,,,,,,,,,,,,,,,,002,226,2020-11-12_11h20.30.823,tareaTDv3,2020.2.5,Win32,60,,,,left,0,2.06597,0,75,75,16,1,10000,0,39000,59,,
,,,,,,,,,,,,,,,,,,,,,,002,226,2020-11-12_11h20.30.823,tareaTDv3,2020.2.5,Win32,60,,,,right,1,2.21875,0,76,76,19,1,10000,0,149000,61,,
,,,,,,,,,,,,,,,,,,,,,,002,226,2020-11-12_11h20.30.823,tareaTDv3,2020.2.5,Win32,60,,,,left,1,1.354845,0,77,77,18,1,10000,0,110000,60,,
,,,,,,,,,,,,,,,,,,,,,,002,226,2020-11-12_11h20.30.823,tareaTDv3,2020.2.5,Win32,60,,,,left,1,1.407185,0,78,78,13,1,10000,0,111000,30,,
,,,,,,,,,,,,,,,,,,,,,,002,226,2020-11-12_11h20.30.823,tareaTDv3,2020.2.5,Win32,60,,,,left,0,2.558505,0,79,79,45,1,5000,0,15000,61,,
,,,,,,,,,,,,,,,,,,,,,,002,226,2020-11-12_11h20.30.823,tareaTDv3,2020.2.5,Win32,60,,,,left,1,2.952045,0,80,80,54,1,5000,0,150000,90,,
,,,,,,,,,,,,,,,,,,,,,,002,226,2020-11-12_11h20.30.823,tareaTDv3,2020.2.5,Win32,60,,,,right,1,4.4364,0,81,81,44,1,5000,0,150000,30,,
,,,,,,,,,,,,,,,,,,,,,,002,226,2020-11-12_11h20.30.823,tareaTDv3,2020.2.5,Win32,60,,,,left,1,6.530445,0,82,82,59,1,5000,0,151000,150,,
,,,,,,,,,,,,,,,,,,,,,,002,226,2020-11-12_11h20.30.823,tareaTDv3,2020.2.5,Win32,60,,,,right,1,0.985265,0,83,83,9,1,10000,0,151000,11,,
,,,,,,,,,,,,,,,,,,,,,,002,226,2020-11-12_11h20.30.823,tareaTDv3,2020.2.5,Win32,60,,,,right,1,4.244575,0,84,84,40,1,5000,0,14000,31,,
,,,,,,,,,,,,,,,,,,,,,,002,226,2020-11-12_11h20.30.823,tareaTDv3,2020.2.5,Win32,60,,,,right,1,0.93909,0,85,85,33,1,5000,0,104000,5,,
,,,,,,,,,,,,,,,,,,,,,,002,226,2020-11-12_11h20.30.823,tareaTDv3,2020.2.5,Win32,60,,,,left,1,2.4058,0,86,86,32,1,5000,0,54000,5,,
,,,,,,,,,,,,,,,,,,,,,,002,226,2020-11-12_11h20.30.823,tareaTDv3,2020.2.5,Win32,60,,,,right,0,1.637815,0,87,87,87,1,25000,0,75000,151,,
,,,,,,,,,,,,,,,,,,,,,,002,226,2020-11-12_11h20.30.823,tareaTDv3,2020.2.5,Win32,60,,,,left,1,2.4724,0,88,88,61,1,25000,0,55000,6,,
,,,,,,,,,,,,,,,,,,,,,,002,226,2020-11-12_11h20.30.823,tareaTDv3,2020.2.5,Win32,60,,,,right,1,1.46685,0,89,89,68,1,25000,0,125000,9,,
,,,,,,,,,,,,,,,,,,,,,,002,226,2020-11-12_11h20.30.823,tareaTDv3,2020.2.5,Win32,60,,,,,,,,,,,,,,,,right,1.615185
