ssAmount,llAmount,llDelay,ss_am,ss_del,ll_am,ll_del,Practice.thisRepN,Practice.thisTrialN,Practice.thisN,Practice.thisIndex,trials.thisRepN,trials.thisTrialN,trials.thisN,trials.thisIndex,key1.keys,key1.rt,key2.keys,key2.rt,key2_2.keys,key2_2.rt,key2_3.keys,key2_3.rt,key3.keys,key3.rt,key4.keys,key4.rt,respP.keys,respP.corr,respP.rt,key5.keys,key5.rt,respT.keys,respT.corr,respT.rt,key_resp_4.keys,key_resp_4.rt,session,psychopyVersion,frameRate,expName,date,participant,
,,,,,,,,,,,,,,,space,25.9288957978,,,,,,,,,,,,,,,,,,,,,001,3.0.3,60.02629005210018,ninosDelConv2,2019_Aug_10_0958,227,
,,,,,,,,,,,,,,,,,space,15.9148605316,,,,,,,,,,,,,,,,,,,001,3.0.3,60.02629005210018,ninosDelConv2,2019_Aug_10_0958,227,
,,,,,,,,,,,,,,,,,,,space,21.3461914118,,,,,,,,,,,,,,,,,001,3.0.3,60.02629005210018,ninosDelConv2,2019_Aug_10_0958,227,
,,,,,,,,,,,,,,,,,,,,,space,5.56587111379,,,,,,,,,,,,,,,001,3.0.3,60.02629005210018,ninosDelConv2,2019_Aug_10_0958,227,
,,,,,,,,,,,,,,,,,,,,,,,left,2.66705169447,,,,,,,,,,,,,001,3.0.3,60.02629005210018,ninosDelConv2,2019_Aug_10_0958,227,
,,,,,,,,,,,,,,,,,,,,,,,,,space,2.04980018653,,,,,,,,,,,001,3.0.3,60.02629005210018,ninosDelConv2,2019_Aug_10_0958,227,
25,35,150,,,,,0,0,0,1,,,,,,,,,,,,,,,,,right,0,2.78306175757,,,,,,,,001,3.0.3,60.02629005210018,ninosDelConv2,2019_Aug_10_0958,227,
10,19,89,,,,,0,1,1,2,,,,,,,,,,,,,,,,,right,0,3.49956202449,,,,,,,,001,3.0.3,60.02629005210018,ninosDelConv2,2019_Aug_10_0958,227,
10,109,9,,,,,0,2,2,0,,,,,,,,,,,,,,,,,left,1,2.28316919529,,,,,,,,001,3.0.3,60.02629005210018,ninosDelConv2,2019_Aug_10_0958,227,
,,,,,,,,,,,,,,,,,,,,,,,,,,,,,,g,64.9550103479,,,,,,001,3.0.3,60.02629005210018,ninosDelConv2,2019_Aug_10_0958,227,
,,,10,0,60.0,29,,,,,0,0,0,12,,,,,,,,,,,,,,,,,,right,0,3.48276884854,,,001,3.0.3,60.02629005210018,ninosDelConv2,2019_Aug_10_0958,227,
,,,5,0,149.0,10,,,,,0,1,1,39,,,,,,,,,,,,,,,,,,right,1,1.78336967702,,,001,3.0.3,60.02629005210018,ninosDelConv2,2019_Aug_10_0958,227,
,,,10,0,10.01,150,,,,,0,2,2,25,,,,,,,,,,,,,,,,,,right,0,3.86602574191,,,001,3.0.3,60.02629005210018,ninosDelConv2,2019_Aug_10_0958,227,
,,,5,0,56.0,89,,,,,0,3,3,52,,,,,,,,,,,,,,,,,,left,0,1.66671036137,,,001,3.0.3,60.02629005210018,ninosDelConv2,2019_Aug_10_0958,227,
,,,10,0,110.0,60,,,,,0,4,4,18,,,,,,,,,,,,,,,,,,left,0,4.48218488123,,,001,3.0.3,60.02629005210018,ninosDelConv2,2019_Aug_10_0958,227,
,,,5,0,56.0,29,,,,,0,5,5,42,,,,,,,,,,,,,,,,,,left,1,2.39985678403,,,001,3.0.3,60.02629005210018,ninosDelConv2,2019_Aug_10_0958,227,
,,,10,0,111.0,30,,,,,0,6,6,13,,,,,,,,,,,,,,,,,,right,0,2.18352152919,,,001,3.0.3,60.02629005210018,ninosDelConv2,2019_Aug_10_0958,227,
,,,25,0,55.0,151,,,,,0,7,7,86,,,,,,,,,,,,,,,,,,right,0,1.26680525613,,,001,3.0.3,60.02629005210018,ninosDelConv2,2019_Aug_10_0958,227,
,,,25,0,150.0,89,,,,,0,8,8,84,,,,,,,,,,,,,,,,,,left,0,1.5501322666,,,001,3.0.3,60.02629005210018,ninosDelConv2,2019_Aug_10_0958,227,
,,,5,0,149.0,59,,,,,0,9,9,49,,,,,,,,,,,,,,,,,,left,0,3.61565382243,,,001,3.0.3,60.02629005210018,ninosDelConv2,2019_Aug_10_0958,227,
,,,25,0,75.0,10,,,,,0,10,10,67,,,,,,,,,,,,,,,,,,right,0,2.29992330284,,,001,3.0.3,60.02629005210018,ninosDelConv2,2019_Aug_10_0958,227,
,,,5,0,35.0,89,,,,,0,11,11,51,,,,,,,,,,,,,,,,,,right,0,1.45009134768,,,001,3.0.3,60.02629005210018,ninosDelConv2,2019_Aug_10_0958,227,
,,,25,0,75.0,31,,,,,0,12,12,72,,,,,,,,,,,,,,,,,,left,0,2.06678150676,,,001,3.0.3,60.02629005210018,ninosDelConv2,2019_Aug_10_0958,227,
,,,5,0,15.0,11,,,,,0,13,13,35,,,,,,,,,,,,,,,,,,left,0,2.50013725297,,,001,3.0.3,60.02629005210018,ninosDelConv2,2019_Aug_10_0958,227,
,,,25,0,125.0,89,,,,,0,14,14,83,,,,,,,,,,,,,,,,,,right,0,1.74994628108,,,001,3.0.3,60.02629005210018,ninosDelConv2,2019_Aug_10_0958,227,
,,,25,0,125.0,59,,,,,0,15,15,78,,,,,,,,,,,,,,,,,,left,0,1.50001953414,,,001,3.0.3,60.02629005210018,ninosDelConv2,2019_Aug_10_0958,227,
,,,25,0,125.0,4,,,,,0,16,16,63,,,,,,,,,,,,,,,,,,right,0,0.849913690006,,,001,3.0.3,60.02629005210018,ninosDelConv2,2019_Aug_10_0958,227,
,,,10,0,111.0,10,,,,,0,17,17,8,,,,,,,,,,,,,,,,,,left,0,1.94987287407,,,001,3.0.3,60.02629005210018,ninosDelConv2,2019_Aug_10_0958,227,
,,,5,0,14.0,31,,,,,0,18,18,40,,,,,,,,,,,,,,,,,,left,0,1.30005233083,,,001,3.0.3,60.02629005210018,ninosDelConv2,2019_Aug_10_0958,227,
,,,10,0,149.0,61,,,,,0,19,19,19,,,,,,,,,,,,,,,,,,right,0,1.21673776058,,,001,3.0.3,60.02629005210018,ninosDelConv2,2019_Aug_10_0958,227,
,,,25,0,55.0,30,,,,,0,20,20,71,,,,,,,,,,,,,,,,,,left,0,1.46667067637,,,001,3.0.3,60.02629005210018,ninosDelConv2,2019_Aug_10_0958,227,
,,,5,0,15.0,61,,,,,0,21,21,45,,,,,,,,,,,,,,,,,,right,0,1.20012810268,,,001,3.0.3,60.02629005210018,ninosDelConv2,2019_Aug_10_0958,227,
,,,25,0,75.0,151,,,,,0,22,22,87,,,,,,,,,,,,,,,,,,right,0,2.11692251218,,,001,3.0.3,60.02629005210018,ninosDelConv2,2019_Aug_10_0958,227,
,,,10,0,21.0,31,,,,,0,23,23,10,,,,,,,,,,,,,,,,,,right,0,1.2999911583,,,001,3.0.3,60.02629005210018,ninosDelConv2,2019_Aug_10_0958,227,
,,,5,0,150.0,30,,,,,0,24,24,44,,,,,,,,,,,,,,,,,,right,1,5.06594462378,,,001,3.0.3,60.02629005210018,ninosDelConv2,2019_Aug_10_0958,227,
,,,25,0,125.0,149,,,,,0,25,25,88,,,,,,,,,,,,,,,,,,right,0,0.683071216336,,,001,3.0.3,60.02629005210018,ninosDelConv2,2019_Aug_10_0958,227,
,,,10,0,61.0,89,,,,,0,26,26,22,,,,,,,,,,,,,,,,,,right,0,1.63314200181,,,001,3.0.3,60.02629005210018,ninosDelConv2,2019_Aug_10_0958,227,
,,,10,0,39.0,150,,,,,0,27,27,26,,,,,,,,,,,,,,,,,,left,0,2.08312077122,,,001,3.0.3,60.02629005210018,ninosDelConv2,2019_Aug_10_0958,227,
,,,25,0,75.0,90,,,,,0,28,28,82,,,,,,,,,,,,,,,,,,right,0,1.5664977479,,,001,3.0.3,60.02629005210018,ninosDelConv2,2019_Aug_10_0958,227,
,,,10,0,61.0,4,,,,,0,29,29,2,,,,,,,,,,,,,,,,,,right,0,4.39955760352,,,001,3.0.3,60.02629005210018,ninosDelConv2,2019_Aug_10_0958,227,
,,,25,0,55.0,11,,,,,0,30,30,66,,,,,,,,,,,,,,,,,,right,0,1.71658097359,,,001,3.0.3,60.02629005210018,ninosDelConv2,2019_Aug_10_0958,227,
,,,10,0,59.0,9,,,,,0,31,31,7,,,,,,,,,,,,,,,,,,right,0,0.900216109003,,,001,3.0.3,60.02629005210018,ninosDelConv2,2019_Aug_10_0958,227,
,,,5,0,54.0,5,,,,,0,32,32,32,,,,,,,,,,,,,,,,,,left,1,4.9159071492,,,001,3.0.3,60.02629005210018,ninosDelConv2,2019_Aug_10_0958,227,
,,,5,0,15.0,91,,,,,0,33,33,50,,,,,,,,,,,,,,,,,,right,0,1.49996555829,,,001,3.0.3,60.02629005210018,ninosDelConv2,2019_Aug_10_0958,227,
,,,5,0,151.0,150,,,,,0,34,34,59,,,,,,,,,,,,,,,,,,right,0,1.2499740402,,,001,3.0.3,60.02629005210018,ninosDelConv2,2019_Aug_10_0958,227,
,,,5,0,36.0,9,,,,,0,35,35,36,,,,,,,,,,,,,,,,,,right,0,4.34931635717,,,001,3.0.3,60.02629005210018,ninosDelConv2,2019_Aug_10_0958,227,
,,,25,0,35.0,150,,,,,0,36,36,85,,,,,,,,,,,,,,,,,,right,0,2.34982115997,,,001,3.0.3,60.02629005210018,ninosDelConv2,2019_Aug_10_0958,227,
,,,25,0,55.0,90,,,,,0,37,37,81,,,,,,,,,,,,,,,,,,right,0,1.66708767833,,,001,3.0.3,60.02629005210018,ninosDelConv2,2019_Aug_10_0958,227,
,,,25,0,150.0,61,,,,,0,38,38,79,,,,,,,,,,,,,,,,,,left,0,0.40012871963,,,001,3.0.3,60.02629005210018,ninosDelConv2,2019_Aug_10_0958,227,
,,,25,0,35.0,5,,,,,0,39,39,60,,,,,,,,,,,,,,,,,,left,0,2.06638773996,,,001,3.0.3,60.02629005210018,ninosDelConv2,2019_Aug_10_0958,227,
,,,25,0,35.0,30,,,,,0,40,40,70,,,,,,,,,,,,,,,,,,right,0,1.43354697491,,,001,3.0.3,60.02629005210018,ninosDelConv2,2019_Aug_10_0958,227,
,,,10,0,109.0,149,,,,,0,41,41,28,,,,,,,,,,,,,,,,,,right,0,1.40010610118,,,001,3.0.3,60.02629005210018,ninosDelConv2,2019_Aug_10_0958,227,
,,,5,0,150.0,90,,,,,0,42,42,54,,,,,,,,,,,,,,,,,,left,0,1.80008677265,,,001,3.0.3,60.02629005210018,ninosDelConv2,2019_Aug_10_0958,227,
,,,10,0,149.0,89,,,,,0,43,43,24,,,,,,,,,,,,,,,,,,right,0,3.08331662661,,,001,3.0.3,60.02629005210018,ninosDelConv2,2019_Aug_10_0958,227,
,,,5,0,151.0,4,,,,,0,44,44,34,,,,,,,,,,,,,,,,,,left,0,3.48302073602,,,001,3.0.3,60.02629005210018,ninosDelConv2,2019_Aug_10_0958,227,
,,,25,0,55.0,6,,,,,0,45,45,61,,,,,,,,,,,,,,,,,,left,0,7.21565053251,,,001,3.0.3,60.02629005210018,ninosDelConv2,2019_Aug_10_0958,227,
,,,25,0,35.0,90,,,,,0,46,46,80,,,,,,,,,,,,,,,,,,right,0,1.3332901526,,,001,3.0.3,60.02629005210018,ninosDelConv2,2019_Aug_10_0958,227,
,,,5,0,35.0,150,,,,,0,47,47,56,,,,,,,,,,,,,,,,,,right,1,0.583549493807,,,001,3.0.3,60.02629005210018,ninosDelConv2,2019_Aug_10_0958,227,
,,,5,0,104.0,10,,,,,0,48,48,38,,,,,,,,,,,,,,,,,,left,0,0.767002653563,,,001,3.0.3,60.02629005210018,ninosDelConv2,2019_Aug_10_0958,227,
,,,5,0,106.0,29,,,,,0,49,49,43,,,,,,,,,,,,,,,,,,left,0,1.46668661211,,,001,3.0.3,60.02629005210018,ninosDelConv2,2019_Aug_10_0958,227,
,,,25,0,150.0,29,,,,,0,50,50,74,,,,,,,,,,,,,,,,,,right,0,1.76655491092,,,001,3.0.3,60.02629005210018,ninosDelConv2,2019_Aug_10_0958,227,
,,,25,0,55.0,60,,,,,0,51,51,76,,,,,,,,,,,,,,,,,,left,0,1.06683702476,,,001,3.0.3,60.02629005210018,ninosDelConv2,2019_Aug_10_0958,227,
,,,10,0,40.0,10,,,,,0,52,52,6,,,,,,,,,,,,,,,,,,left,0,3.09969855763,,,001,3.0.3,60.02629005210018,ninosDelConv2,2019_Aug_10_0958,227,
,,,10,0,20.0,59,,,,,0,53,53,15,,,,,,,,,,,,,,,,,,None,0,,,,001,3.0.3,60.02629005210018,ninosDelConv2,2019_Aug_10_0958,227,
,,,10,0,151.0,11,,,,,0,54,54,9,,,,,,,,,,,,,,,,,,left,0,0.866831781459,,,001,3.0.3,60.02629005210018,ninosDelConv2,2019_Aug_10_0958,227,
,,,5,0,104.0,90,,,,,0,55,55,53,,,,,,,,,,,,,,,,,,left,0,2.83311897214,,,001,3.0.3,60.02629005210018,ninosDelConv2,2019_Aug_10_0958,227,
,,,5,0,55.0,151,,,,,0,56,56,57,,,,,,,,,,,,,,,,,,right,0,2.58308735758,,,001,3.0.3,60.02629005210018,ninosDelConv2,2019_Aug_10_0958,227,
,,,5,0,104.0,5,,,,,0,57,57,33,,,,,,,,,,,,,,,,,,right,1,2.44982198253,,,001,3.0.3,60.02629005210018,ninosDelConv2,2019_Aug_10_0958,227,
,,,25,0,125.0,31,,,,,0,58,58,73,,,,,,,,,,,,,,,,,,left,0,1.81680746656,,,001,3.0.3,60.02629005210018,ninosDelConv2,2019_Aug_10_0958,227,
,,,10,0,19.0,11,,,,,0,59,59,5,,,,,,,,,,,,,,,,,,left,0,9.28167946159,,,001,3.0.3,60.02629005210018,ninosDelConv2,2019_Aug_10_0958,227,
,,,25,0,150.0,9,,,,,0,60,60,69,,,,,,,,,,,,,,,,,,left,0,0.683592468849,,,001,3.0.3,60.02629005210018,ninosDelConv2,2019_Aug_10_0958,227,
,,,10,0,20.0,5,,,,,0,61,61,0,,,,,,,,,,,,,,,,,,right,0,1.43339224416,,,001,3.0.3,60.02629005210018,ninosDelConv2,2019_Aug_10_0958,227,
,,,10,0,40.0,91,,,,,0,62,62,21,,,,,,,,,,,,,,,,,,left,0,1.89991744258,,,001,3.0.3,60.02629005210018,ninosDelConv2,2019_Aug_10_0958,227,
,,,10,0,60.0,60,,,,,0,63,63,17,,,,,,,,,,,,,,,,,,left,0,1.86687804642,,,001,3.0.3,60.02629005210018,ninosDelConv2,2019_Aug_10_0958,227,
,,,25,0,125.0,9,,,,,0,64,64,68,,,,,,,,,,,,,,,,,,left,0,2.33409207978,,,001,3.0.3,60.02629005210018,ninosDelConv2,2019_Aug_10_0958,227,
,,,10,0,39.0,6,,,,,0,65,65,1,,,,,,,,,,,,,,,,,,left,0,6.61563223205,,,001,3.0.3,60.02629005210018,ninosDelConv2,2019_Aug_10_0958,227,
,,,25,0,75.0,5,,,,,0,66,66,62,,,,,,,,,,,,,,,,,,right,0,1.35006739281,,,001,3.0.3,60.02629005210018,ninosDelConv2,2019_Aug_10_0958,227,
,,,5,0,35.0,6,,,,,0,67,67,31,,,,,,,,,,,,,,,,,,right,0,3.41566297261,,,001,3.0.3,60.02629005210018,ninosDelConv2,2019_Aug_10_0958,227,
,,,5,0,16.0,4,,,,,0,68,68,30,,,,,,,,,,,,,,,,,,None,0,,,,001,3.0.3,60.02629005210018,ninosDelConv2,2019_Aug_10_0958,227,
,,,10,0,39.0,59,,,,,0,69,69,16,,,,,,,,,,,,,,,,,,left,0,2.81624149112,,,001,3.0.3,60.02629005210018,ninosDelConv2,2019_Aug_10_0958,227,
,,,10,0,151.0,151,,,,,0,70,70,29,,,,,,,,,,,,,,,,,,left,0,0.900738389813,,,001,3.0.3,60.02629005210018,ninosDelConv2,2019_Aug_10_0958,227,
,,,10,0,150.0,5,,,,,0,71,71,4,,,,,,,,,,,,,,,,,,left,1,5.34921097569,,,001,3.0.3,60.02629005210018,ninosDelConv2,2019_Aug_10_0958,227,
,,,5,0,35.0,31,,,,,0,72,72,41,,,,,,,,,,,,,,,,,,right,0,4.39947895298,,,001,3.0.3,60.02629005210018,ninosDelConv2,2019_Aug_10_0958,227,
,,,10,0,39.0,29,,,,,0,73,73,11,,,,,,,,,,,,,,,,,,left,0,1.16684761434,,,001,3.0.3,60.02629005210018,ninosDelConv2,2019_Aug_10_0958,227,
,,,10,0,109.0,5,,,,,0,74,74,3,,,,,,,,,,,,,,,,,,left,1,8.84879150614,,,001,3.0.3,60.02629005210018,ninosDelConv2,2019_Aug_10_0958,227,
,,,25,0,150.0,150,,,,,0,75,75,89,,,,,,,,,,,,,,,,,,right,0,3.03353031958,,,001,3.0.3,60.02629005210018,ninosDelConv2,2019_Aug_10_0958,227,
,,,10,0,110.0,90,,,,,0,76,76,23,,,,,,,,,,,,,,,,,,right,0,1.03332264093,,,001,3.0.3,60.02629005210018,ninosDelConv2,2019_Aug_10_0958,227,
,,,25,0,150.0,4,,,,,0,77,77,64,,,,,,,,,,,,,,,,,,right,1,1.86656344426,,,001,3.0.3,60.02629005210018,ninosDelConv2,2019_Aug_10_0958,227,
,,,5,0,14.0,149,,,,,0,78,78,55,,,,,,,,,,,,,,,,,,left,0,9.6317566213,,,001,3.0.3,60.02629005210018,ninosDelConv2,2019_Aug_10_0958,227,
,,,25,0,75.0,59,,,,,0,79,79,77,,,,,,,,,,,,,,,,,,left,0,1.39996165142,,,001,3.0.3,60.02629005210018,ninosDelConv2,2019_Aug_10_0958,227,
,,,25,0,35.0,11,,,,,0,80,80,65,,,,,,,,,,,,,,,,,,right,0,1.21663392137,,,001,3.0.3,60.02629005210018,ninosDelConv2,2019_Aug_10_0958,227,
,,,10,0,20.0,90,,,,,0,81,81,20,,,,,,,,,,,,,,,,,,left,0,0.683713271981,,,001,3.0.3,60.02629005210018,ninosDelConv2,2019_Aug_10_0958,227,
,,,25,0,35.0,60,,,,,0,82,82,75,,,,,,,,,,,,,,,,,,right,0,0.900082454551,,,001,3.0.3,60.02629005210018,ninosDelConv2,2019_Aug_10_0958,227,
,,,10,0,61.0,150,,,,,0,83,83,27,,,,,,,,,,,,,,,,,,left,0,0.700428825454,,,001,3.0.3,60.02629005210018,ninosDelConv2,2019_Aug_10_0958,227,
,,,5,0,56.0,9,,,,,0,84,84,37,,,,,,,,,,,,,,,,,,right,1,1.99987714062,,,001,3.0.3,60.02629005210018,ninosDelConv2,2019_Aug_10_0958,227,
,,,5,0,105.0,60,,,,,0,85,85,48,,,,,,,,,,,,,,,,,,right,0,0.866760841687,,,001,3.0.3,60.02629005210018,ninosDelConv2,2019_Aug_10_0958,227,
,,,5,0,36.0,61,,,,,0,86,86,46,,,,,,,,,,,,,,,,,,left,0,4.78274766949,,,001,3.0.3,60.02629005210018,ninosDelConv2,2019_Aug_10_0958,227,
,,,5,0,106.0,152,,,,,0,87,87,58,,,,,,,,,,,,,,,,,,left,0,2.18317145715,,,001,3.0.3,60.02629005210018,ninosDelConv2,2019_Aug_10_0958,227,
,,,10,0,150.0,30,,,,,0,88,88,14,,,,,,,,,,,,,,,,,,left,0,0.900134888245,,,001,3.0.3,60.02629005210018,ninosDelConv2,2019_Aug_10_0958,227,
,,,5,0,56.0,60,,,,,0,89,89,47,,,,,,,,,,,,,,,,,,left,0,3.06661495264,,,001,3.0.3,60.02629005210018,ninosDelConv2,2019_Aug_10_0958,227,
,,,,,,,,,,,,,,,,,,,,,,,,,,,,,,,,,,,space,3.2170677844,001,3.0.3,60.02629005210018,ninosDelConv2,2019_Aug_10_0958,227,
