key1.keys,key1.rt,key2.keys,key2.rt,key2_2.keys,key2_2.rt,key2_3.keys,key2_3.rt,key3.keys,key3.rt,key4.keys,key4.rt,respP.keys,respP.corr,respP.rt,Practice.thisRepN,Practice.thisTrialN,Practice.thisN,Practice.thisIndex,Practice.ran,ssAmount,llAmount,llDelay,session,participant,date,expName,psychopyVersion,OS,frameRate,key5.keys,key5.rt,respT.keys,respT.corr,respT.rt,trials.thisRepN,trials.thisTrialN,trials.thisN,trials.thisIndex,trials.ran,ss_Amt,ss_Delay,ll_Amt,ll_Delay
space,9.9861,space,14.0211,space,13.2877,space,2.1209,left,5.0712,space,2.6805,left,1,5.7774,0,0,0,0,1,10000,109000,9,25-07-2022,304,2022-07-25_07h55.28.515,tareaTDv3,2020.2.5,Win32,60,,,,,,,,,,,,,,
,,,,,,,,,,,,right,0,4.1476,0,1,1,1,1,25000,35000,150,25-07-2022,304,2022-07-25_07h55.28.515,tareaTDv3,2020.2.5,Win32,60,,,,,,,,,,,,,,
,,,,,,,,,,,,right,0,3.3774,0,2,2,2,1,10000,19000,89,25-07-2022,304,2022-07-25_07h55.28.515,tareaTDv3,2020.2.5,Win32,60,,,,,,,,,,,,,,
,,,,,,,,,,,,,,,,,,,,,,,25-07-2022,304,2022-07-25_07h55.28.515,tareaTDv3,2020.2.5,Win32,60,g,17.1012,left,0,7.0129,0,0,0,55,1,5000,0,14000,149
,,,,,,,,,,,,,,,,,,,,,,,25-07-2022,304,2022-07-25_07h55.28.515,tareaTDv3,2020.2.5,Win32,60,,,right,1,4.5659,0,1,1,87,1,25000,0,75000,151
,,,,,,,,,,,,,,,,,,,,,,,25-07-2022,304,2022-07-25_07h55.28.515,tareaTDv3,2020.2.5,Win32,60,,,right,1,2.1502,0,2,2,32,1,5000,0,54000,5
,,,,,,,,,,,,,,,,,,,,,,,25-07-2022,304,2022-07-25_07h55.28.515,tareaTDv3,2020.2.5,Win32,60,,,right,1,2.2389,0,3,3,39,1,5000,0,149000,10
,,,,,,,,,,,,,,,,,,,,,,,25-07-2022,304,2022-07-25_07h55.28.515,tareaTDv3,2020.2.5,Win32,60,,,left,1,2.9474,0,4,4,76,1,25000,0,55000,60
,,,,,,,,,,,,,,,,,,,,,,,25-07-2022,304,2022-07-25_07h55.28.515,tareaTDv3,2020.2.5,Win32,60,,,right,1,3.5915,0,5,5,0,1,10000,0,20000,5
,,,,,,,,,,,,,,,,,,,,,,,25-07-2022,304,2022-07-25_07h55.28.515,tareaTDv3,2020.2.5,Win32,60,,,right,1,2.7143,0,6,6,66,1,25000,0,55000,11
,,,,,,,,,,,,,,,,,,,,,,,25-07-2022,304,2022-07-25_07h55.28.515,tareaTDv3,2020.2.5,Win32,60,,,left,1,4.0054,0,7,7,38,1,5000,0,104000,10
,,,,,,,,,,,,,,,,,,,,,,,25-07-2022,304,2022-07-25_07h55.28.515,tareaTDv3,2020.2.5,Win32,60,,,right,0,1.9407,0,8,8,16,1,10000,0,39000,59
,,,,,,,,,,,,,,,,,,,,,,,25-07-2022,304,2022-07-25_07h55.28.515,tareaTDv3,2020.2.5,Win32,60,,,left,1,6.1748,0,9,9,43,1,5000,0,106000,29
,,,,,,,,,,,,,,,,,,,,,,,25-07-2022,304,2022-07-25_07h55.28.515,tareaTDv3,2020.2.5,Win32,60,,,right,1,14.0034,0,10,10,24,1,10000,0,149000,89
,,,,,,,,,,,,,,,,,,,,,,,25-07-2022,304,2022-07-25_07h55.28.515,tareaTDv3,2020.2.5,Win32,60,,,right,0,2.8544,0,11,11,81,1,25000,0,55000,90
,,,,,,,,,,,,,,,,,,,,,,,25-07-2022,304,2022-07-25_07h55.28.515,tareaTDv3,2020.2.5,Win32,60,,,right,0,2.3353,0,12,12,82,1,25000,0,75000,90
,,,,,,,,,,,,,,,,,,,,,,,25-07-2022,304,2022-07-25_07h55.28.515,tareaTDv3,2020.2.5,Win32,60,,,right,0,1.5334,0,13,13,80,1,25000,0,35000,90
,,,,,,,,,,,,,,,,,,,,,,,25-07-2022,304,2022-07-25_07h55.28.515,tareaTDv3,2020.2.5,Win32,60,,,right,0,4.5629,0,14,14,35,1,5000,0,15000,11
,,,,,,,,,,,,,,,,,,,,,,,25-07-2022,304,2022-07-25_07h55.28.515,tareaTDv3,2020.2.5,Win32,60,,,left,0,3.9063,0,15,15,86,1,25000,0,55000,151
,,,,,,,,,,,,,,,,,,,,,,,25-07-2022,304,2022-07-25_07h55.28.515,tareaTDv3,2020.2.5,Win32,60,,,right,0,9.0467,0,16,16,27,1,10000,0,61000,150
,,,,,,,,,,,,,,,,,,,,,,,25-07-2022,304,2022-07-25_07h55.28.515,tareaTDv3,2020.2.5,Win32,60,,,left,1,1.3625,0,17,17,73,1,25000,0,125000,31
,,,,,,,,,,,,,,,,,,,,,,,25-07-2022,304,2022-07-25_07h55.28.515,tareaTDv3,2020.2.5,Win32,60,,,left,1,1.4523,0,18,18,63,1,25000,0,125000,4
,,,,,,,,,,,,,,,,,,,,,,,25-07-2022,304,2022-07-25_07h55.28.515,tareaTDv3,2020.2.5,Win32,60,,,left,0,1.7275,0,19,19,28,1,10000,0,109000,149
,,,,,,,,,,,,,,,,,,,,,,,25-07-2022,304,2022-07-25_07h55.28.515,tareaTDv3,2020.2.5,Win32,60,,,left,1,2.6424,0,20,20,1,1,10000,0,39000,6
,,,,,,,,,,,,,,,,,,,,,,,25-07-2022,304,2022-07-25_07h55.28.515,tareaTDv3,2020.2.5,Win32,60,,,left,0,4.1454,0,21,21,21,1,10000,0,40000,91
,,,,,,,,,,,,,,,,,,,,,,,25-07-2022,304,2022-07-25_07h55.28.515,tareaTDv3,2020.2.5,Win32,60,,,right,1,5.0249,0,22,22,59,1,5000,0,151000,150
,,,,,,,,,,,,,,,,,,,,,,,25-07-2022,304,2022-07-25_07h55.28.515,tareaTDv3,2020.2.5,Win32,60,,,right,1,3.3922,0,23,23,89,1,25000,0,150000,150
,,,,,,,,,,,,,,,,,,,,,,,25-07-2022,304,2022-07-25_07h55.28.515,tareaTDv3,2020.2.5,Win32,60,,,left,1,13.2272,0,24,24,79,1,25000,0,150000,61
,,,,,,,,,,,,,,,,,,,,,,,25-07-2022,304,2022-07-25_07h55.28.515,tareaTDv3,2020.2.5,Win32,60,,,left,0,2.0148,0,25,25,75,1,25000,0,35000,60
,,,,,,,,,,,,,,,,,,,,,,,25-07-2022,304,2022-07-25_07h55.28.515,tareaTDv3,2020.2.5,Win32,60,,,left,0,4.434,0,26,26,26,1,10000,0,39000,150
,,,,,,,,,,,,,,,,,,,,,,,25-07-2022,304,2022-07-25_07h55.28.515,tareaTDv3,2020.2.5,Win32,60,,,left,0,1.5853,0,27,27,85,1,25000,0,35000,150
,,,,,,,,,,,,,,,,,,,,,,,25-07-2022,304,2022-07-25_07h55.28.515,tareaTDv3,2020.2.5,Win32,60,,,left,1,1.8952,0,28,28,23,1,10000,0,110000,90
,,,,,,,,,,,,,,,,,,,,,,,25-07-2022,304,2022-07-25_07h55.28.515,tareaTDv3,2020.2.5,Win32,60,,,left,1,3.7376,0,29,29,49,1,5000,0,149000,59
,,,,,,,,,,,,,,,,,,,,,,,25-07-2022,304,2022-07-25_07h55.28.515,tareaTDv3,2020.2.5,Win32,60,,,left,1,1.8406,0,30,30,78,1,25000,0,125000,59
,,,,,,,,,,,,,,,,,,,,,,,25-07-2022,304,2022-07-25_07h55.28.515,tareaTDv3,2020.2.5,Win32,60,,,right,0,1.9294,0,31,31,70,1,25000,0,35000,30
,,,,,,,,,,,,,,,,,,,,,,,25-07-2022,304,2022-07-25_07h55.28.515,tareaTDv3,2020.2.5,Win32,60,,,left,1,1.1217,0,32,32,4,1,10000,0,150000,5
,,,,,,,,,,,,,,,,,,,,,,,25-07-2022,304,2022-07-25_07h55.28.515,tareaTDv3,2020.2.5,Win32,60,,,left,1,3.4445,0,33,33,84,1,25000,0,150000,89
,,,,,,,,,,,,,,,,,,,,,,,25-07-2022,304,2022-07-25_07h55.28.515,tareaTDv3,2020.2.5,Win32,60,,,right,0,3.5538,0,34,34,29,1,10000,0,151000,151
,,,,,,,,,,,,,,,,,,,,,,,25-07-2022,304,2022-07-25_07h55.28.515,tareaTDv3,2020.2.5,Win32,60,,,right,0,3.8014,0,35,35,51,1,5000,0,35000,89
,,,,,,,,,,,,,,,,,,,,,,,25-07-2022,304,2022-07-25_07h55.28.515,tareaTDv3,2020.2.5,Win32,60,,,left,0,4.1134,0,36,36,10,1,10000,0,21000,31
,,,,,,,,,,,,,,,,,,,,,,,25-07-2022,304,2022-07-25_07h55.28.515,tareaTDv3,2020.2.5,Win32,60,,,left,1,11.9186,0,37,37,3,1,10000,0,109000,5
,,,,,,,,,,,,,,,,,,,,,,,25-07-2022,304,2022-07-25_07h55.28.515,tareaTDv3,2020.2.5,Win32,60,,,right,1,1.8272,0,38,38,37,1,5000,0,56000,9
,,,,,,,,,,,,,,,,,,,,,,,25-07-2022,304,2022-07-25_07h55.28.515,tareaTDv3,2020.2.5,Win32,60,,,left,1,3.5629,0,39,39,58,1,5000,0,106000,152
,,,,,,,,,,,,,,,,,,,,,,,25-07-2022,304,2022-07-25_07h55.28.515,tareaTDv3,2020.2.5,Win32,60,,,left,1,0.4887,0,40,40,33,1,5000,0,104000,5
,,,,,,,,,,,,,,,,,,,,,,,25-07-2022,304,2022-07-25_07h55.28.515,tareaTDv3,2020.2.5,Win32,60,,,right,1,1.2002,0,41,41,15,1,10000,0,20000,59
,,,,,,,,,,,,,,,,,,,,,,,25-07-2022,304,2022-07-25_07h55.28.515,tareaTDv3,2020.2.5,Win32,60,,,right,0,2.2925,0,42,42,65,1,25000,0,35000,11
,,,,,,,,,,,,,,,,,,,,,,,25-07-2022,304,2022-07-25_07h55.28.515,tareaTDv3,2020.2.5,Win32,60,,,left,0,6.6399,0,43,43,11,1,10000,0,39000,29
,,,,,,,,,,,,,,,,,,,,,,,25-07-2022,304,2022-07-25_07h55.28.515,tareaTDv3,2020.2.5,Win32,60,,,left,0,6.0534,0,44,44,57,1,5000,0,55000,151
,,,,,,,,,,,,,,,,,,,,,,,25-07-2022,304,2022-07-25_07h55.28.515,tareaTDv3,2020.2.5,Win32,60,,,right,1,0.8057,0,45,45,31,1,5000,0,35000,6
,,,,,,,,,,,,,,,,,,,,,,,25-07-2022,304,2022-07-25_07h55.28.515,tareaTDv3,2020.2.5,Win32,60,,,left,0,2.4406,0,46,46,22,1,10000,0,61000,89
,,,,,,,,,,,,,,,,,,,,,,,25-07-2022,304,2022-07-25_07h55.28.515,tareaTDv3,2020.2.5,Win32,60,,,left,0,3.6097,0,47,47,46,1,5000,0,36000,61
,,,,,,,,,,,,,,,,,,,,,,,25-07-2022,304,2022-07-25_07h55.28.515,tareaTDv3,2020.2.5,Win32,60,,,left,1,7.3694,0,48,48,67,1,25000,0,75000,10
,,,,,,,,,,,,,,,,,,,,,,,25-07-2022,304,2022-07-25_07h55.28.515,tareaTDv3,2020.2.5,Win32,60,,,left,0,1.1853,0,49,49,36,1,5000,0,36000,9
,,,,,,,,,,,,,,,,,,,,,,,25-07-2022,304,2022-07-25_07h55.28.515,tareaTDv3,2020.2.5,Win32,60,,,left,1,1.0244,0,50,50,19,1,10000,0,149000,61
,,,,,,,,,,,,,,,,,,,,,,,25-07-2022,304,2022-07-25_07h55.28.515,tareaTDv3,2020.2.5,Win32,60,,,right,1,3.454,0,51,51,53,1,5000,0,104000,90
,,,,,,,,,,,,,,,,,,,,,,,25-07-2022,304,2022-07-25_07h55.28.515,tareaTDv3,2020.2.5,Win32,60,,,right,0,2.6716,0,52,52,60,1,25000,0,35000,5
,,,,,,,,,,,,,,,,,,,,,,,25-07-2022,304,2022-07-25_07h55.28.515,tareaTDv3,2020.2.5,Win32,60,,,left,0,4.8407,0,53,53,77,1,25000,0,75000,59
,,,,,,,,,,,,,,,,,,,,,,,25-07-2022,304,2022-07-25_07h55.28.515,tareaTDv3,2020.2.5,Win32,60,,,left,1,0.5585,0,54,54,54,1,5000,0,150000,90
,,,,,,,,,,,,,,,,,,,,,,,25-07-2022,304,2022-07-25_07h55.28.515,tareaTDv3,2020.2.5,Win32,60,,,left,1,1.7195,0,55,55,64,1,25000,0,150000,4
,,,,,,,,,,,,,,,,,,,,,,,25-07-2022,304,2022-07-25_07h55.28.515,tareaTDv3,2020.2.5,Win32,60,,,left,0,1.982,0,56,56,40,1,5000,0,14000,31
,,,,,,,,,,,,,,,,,,,,,,,25-07-2022,304,2022-07-25_07h55.28.515,tareaTDv3,2020.2.5,Win32,60,,,right,0,2.2727,0,57,57,17,1,10000,0,60000,60
,,,,,,,,,,,,,,,,,,,,,,,25-07-2022,304,2022-07-25_07h55.28.515,tareaTDv3,2020.2.5,Win32,60,,,left,1,1.0872,0,58,58,68,1,25000,0,125000,9
,,,,,,,,,,,,,,,,,,,,,,,25-07-2022,304,2022-07-25_07h55.28.515,tareaTDv3,2020.2.5,Win32,60,,,left,1,1.3185,0,59,59,34,1,5000,0,151000,4
,,,,,,,,,,,,,,,,,,,,,,,25-07-2022,304,2022-07-25_07h55.28.515,tareaTDv3,2020.2.5,Win32,60,,,right,0,2.2981,0,60,60,30,1,5000,0,16000,4
,,,,,,,,,,,,,,,,,,,,,,,25-07-2022,304,2022-07-25_07h55.28.515,tareaTDv3,2020.2.5,Win32,60,,,right,1,2.1744,0,61,61,62,1,25000,0,75000,5
,,,,,,,,,,,,,,,,,,,,,,,25-07-2022,304,2022-07-25_07h55.28.515,tareaTDv3,2020.2.5,Win32,60,,,right,1,2.6753,0,62,62,44,1,5000,0,150000,30
,,,,,,,,,,,,,,,,,,,,,,,25-07-2022,304,2022-07-25_07h55.28.515,tareaTDv3,2020.2.5,Win32,60,,,left,1,4.4853,0,63,63,14,1,10000,0,150000,30
,,,,,,,,,,,,,,,,,,,,,,,25-07-2022,304,2022-07-25_07h55.28.515,tareaTDv3,2020.2.5,Win32,60,,,right,1,1.0575,0,64,64,69,1,25000,0,150000,9
,,,,,,,,,,,,,,,,,,,,,,,25-07-2022,304,2022-07-25_07h55.28.515,tareaTDv3,2020.2.5,Win32,60,,,left,1,1.9399,0,65,65,7,1,10000,0,59000,9
,,,,,,,,,,,,,,,,,,,,,,,25-07-2022,304,2022-07-25_07h55.28.515,tareaTDv3,2020.2.5,Win32,60,,,left,0,2.5988,0,66,66,83,1,25000,0,125000,89
,,,,,,,,,,,,,,,,,,,,,,,25-07-2022,304,2022-07-25_07h55.28.515,tareaTDv3,2020.2.5,Win32,60,,,left,1,13.9292,0,67,67,48,1,5000,0,105000,60
,,,,,,,,,,,,,,,,,,,,,,,25-07-2022,304,2022-07-25_07h55.28.515,tareaTDv3,2020.2.5,Win32,60,,,right,1,3.2863,0,68,68,13,1,10000,0,111000,30
,,,,,,,,,,,,,,,,,,,,,,,25-07-2022,304,2022-07-25_07h55.28.515,tareaTDv3,2020.2.5,Win32,60,,,right,1,1.7233,0,69,69,18,1,10000,0,110000,60
,,,,,,,,,,,,,,,,,,,,,,,25-07-2022,304,2022-07-25_07h55.28.515,tareaTDv3,2020.2.5,Win32,60,,,right,0,7.7779,0,70,70,56,1,5000,0,35000,150
,,,,,,,,,,,,,,,,,,,,,,,25-07-2022,304,2022-07-25_07h55.28.515,tareaTDv3,2020.2.5,Win32,60,,,right,0,2.1561,0,71,71,45,1,5000,0,15000,61
,,,,,,,,,,,,,,,,,,,,,,,25-07-2022,304,2022-07-25_07h55.28.515,tareaTDv3,2020.2.5,Win32,60,,,left,1,1.593,0,72,72,71,1,25000,0,55000,30
,,,,,,,,,,,,,,,,,,,,,,,25-07-2022,304,2022-07-25_07h55.28.515,tareaTDv3,2020.2.5,Win32,60,,,right,1,0.5168,0,73,73,61,1,25000,0,55000,6
,,,,,,,,,,,,,,,,,,,,,,,25-07-2022,304,2022-07-25_07h55.28.515,tareaTDv3,2020.2.5,Win32,60,,,right,1,0.5951,0,74,74,9,1,10000,0,151000,11
,,,,,,,,,,,,,,,,,,,,,,,25-07-2022,304,2022-07-25_07h55.28.515,tareaTDv3,2020.2.5,Win32,60,,,right,0,3.8628,0,75,75,88,1,25000,0,125000,149
,,,,,,,,,,,,,,,,,,,,,,,25-07-2022,304,2022-07-25_07h55.28.515,tareaTDv3,2020.2.5,Win32,60,,,left,1,3.5025,0,76,76,52,1,5000,0,56000,89
,,,,,,,,,,,,,,,,,,,,,,,25-07-2022,304,2022-07-25_07h55.28.515,tareaTDv3,2020.2.5,Win32,60,,,right,0,2.329,0,77,77,5,1,10000,0,19000,11
,,,,,,,,,,,,,,,,,,,,,,,25-07-2022,304,2022-07-25_07h55.28.515,tareaTDv3,2020.2.5,Win32,60,,,right,1,1.1525,0,78,78,74,1,25000,0,150000,29
,,,,,,,,,,,,,,,,,,,,,,,25-07-2022,304,2022-07-25_07h55.28.515,tareaTDv3,2020.2.5,Win32,60,,,left,0,3.5467,0,79,79,50,1,5000,0,15000,91
,,,,,,,,,,,,,,,,,,,,,,,25-07-2022,304,2022-07-25_07h55.28.515,tareaTDv3,2020.2.5,Win32,60,,,left,1,1.9889,0,80,80,42,1,5000,0,56000,29
,,,,,,,,,,,,,,,,,,,,,,,25-07-2022,304,2022-07-25_07h55.28.515,tareaTDv3,2020.2.5,Win32,60,,,left,0,1.0958,0,81,81,25,1,10000,0,10000,150
,,,,,,,,,,,,,,,,,,,,,,,25-07-2022,304,2022-07-25_07h55.28.515,tareaTDv3,2020.2.5,Win32,60,,,right,0,0.8732,0,82,82,41,1,5000,0,35000,31
,,,,,,,,,,,,,,,,,,,,,,,25-07-2022,304,2022-07-25_07h55.28.515,tareaTDv3,2020.2.5,Win32,60,,,left,0,0.9743,0,83,83,12,1,10000,0,60000,29
,,,,,,,,,,,,,,,,,,,,,,,25-07-2022,304,2022-07-25_07h55.28.515,tareaTDv3,2020.2.5,Win32,60,,,left,1,3.6304,0,84,84,6,1,10000,0,40000,10
,,,,,,,,,,,,,,,,,,,,,,,25-07-2022,304,2022-07-25_07h55.28.515,tareaTDv3,2020.2.5,Win32,60,,,left,1,2.413,0,85,85,8,1,10000,0,111000,10
,,,,,,,,,,,,,,,,,,,,,,,25-07-2022,304,2022-07-25_07h55.28.515,tareaTDv3,2020.2.5,Win32,60,,,left,0,1.2018,0,86,86,20,1,10000,0,20000,90
,,,,,,,,,,,,,,,,,,,,,,,25-07-2022,304,2022-07-25_07h55.28.515,tareaTDv3,2020.2.5,Win32,60,,,left,0,1.2773,0,87,87,47,1,5000,0,56000,60
,,,,,,,,,,,,,,,,,,,,,,,25-07-2022,304,2022-07-25_07h55.28.515,tareaTDv3,2020.2.5,Win32,60,,,right,1,1.8021,0,88,88,72,1,25000,0,75000,31
,,,,,,,,,,,,,,,,,,,,,,,25-07-2022,304,2022-07-25_07h55.28.515,tareaTDv3,2020.2.5,Win32,60,,,right,1,0.6401,0,89,89,2,1,10000,0,61000,4
