key1.keys,key1.rt,key2.keys,key2.rt,key2_2.keys,key2_2.rt,key2_3.keys,key2_3.rt,key3.keys,key3.rt,key4.keys,key4.rt,respP.keys,respP.corr,respP.rt,Practice.thisRepN,Practice.thisTrialN,Practice.thisN,Practice.thisIndex,Practice.ran,ssAmount,llAmount,llDelay,session,participant,date,expName,psychopyVersion,OS,frameRate,key5.keys,key5.rt,respT.keys,respT.corr,respT.rt,trials.thisRepN,trials.thisTrialN,trials.thisN,trials.thisIndex,trials.ran,ss_Amt,ss_Delay,ll_Amt,ll_Delay
space,36.1311,space,28.555,space,8.6549,space,3.4394,left,3.2184,space,2.5715,left,0,2.8791,0,0,0,0,1,10000,109000,9,13/11/2021,36,2021-11-13_09h33.48.592,tareaTDv3,2020.2.5,Win32,60,,,,,,,,,,,,,,
,,,,,,,,,,,,left,0,2.9746,0,1,1,1,1,25000,35000,150,13/11/2021,36,2021-11-13_09h33.48.592,tareaTDv3,2020.2.5,Win32,60,,,,,,,,,,,,,,
,,,,,,,,,,,,left,0,2.2191,0,2,2,2,1,10000,19000,89,13/11/2021,36,2021-11-13_09h33.48.592,tareaTDv3,2020.2.5,Win32,60,,,,,,,,,,,,,,
,,,,,,,,,,,,,,,,,,,,,,,13/11/2021,36,2021-11-13_09h33.48.592,tareaTDv3,2020.2.5,Win32,60,g,16.593,right,1,3.753,0,0,0,58,1,5000,0,106000,152
,,,,,,,,,,,,,,,,,,,,,,,13/11/2021,36,2021-11-13_09h33.48.592,tareaTDv3,2020.2.5,Win32,60,,,left,0,2.6889,0,1,1,78,1,25000,0,125000,59
,,,,,,,,,,,,,,,,,,,,,,,13/11/2021,36,2021-11-13_09h33.48.592,tareaTDv3,2020.2.5,Win32,60,,,right,1,2.0746,0,2,2,84,1,25000,0,150000,89
,,,,,,,,,,,,,,,,,,,,,,,13/11/2021,36,2021-11-13_09h33.48.592,tareaTDv3,2020.2.5,Win32,60,,,left,0,2.6675,0,3,3,25,1,10000,0,10000,150
,,,,,,,,,,,,,,,,,,,,,,,13/11/2021,36,2021-11-13_09h33.48.592,tareaTDv3,2020.2.5,Win32,60,,,right,1,2.1677,0,4,4,3,1,10000,0,109000,5
,,,,,,,,,,,,,,,,,,,,,,,13/11/2021,36,2021-11-13_09h33.48.592,tareaTDv3,2020.2.5,Win32,60,,,right,1,1.7268,0,5,5,30,1,5000,0,16000,4
,,,,,,,,,,,,,,,,,,,,,,,13/11/2021,36,2021-11-13_09h33.48.592,tareaTDv3,2020.2.5,Win32,60,,,right,1,2.2841,0,6,6,67,1,25000,0,75000,10
,,,,,,,,,,,,,,,,,,,,,,,13/11/2021,36,2021-11-13_09h33.48.592,tareaTDv3,2020.2.5,Win32,60,,,left,1,1.5837,0,7,7,37,1,5000,0,56000,9
,,,,,,,,,,,,,,,,,,,,,,,13/11/2021,36,2021-11-13_09h33.48.592,tareaTDv3,2020.2.5,Win32,60,,,right,0,1.9281,0,8,8,50,1,5000,0,15000,91
,,,,,,,,,,,,,,,,,,,,,,,13/11/2021,36,2021-11-13_09h33.48.592,tareaTDv3,2020.2.5,Win32,60,,,right,1,1.6782,0,9,9,44,1,5000,0,150000,30
,,,,,,,,,,,,,,,,,,,,,,,13/11/2021,36,2021-11-13_09h33.48.592,tareaTDv3,2020.2.5,Win32,60,,,left,1,2.5415,0,10,10,87,1,25000,0,75000,151
,,,,,,,,,,,,,,,,,,,,,,,13/11/2021,36,2021-11-13_09h33.48.592,tareaTDv3,2020.2.5,Win32,60,,,right,1,1.4679,0,11,11,2,1,10000,0,61000,4
,,,,,,,,,,,,,,,,,,,,,,,13/11/2021,36,2021-11-13_09h33.48.592,tareaTDv3,2020.2.5,Win32,60,,,right,1,1.2354,0,12,12,8,1,10000,0,111000,10
,,,,,,,,,,,,,,,,,,,,,,,13/11/2021,36,2021-11-13_09h33.48.592,tareaTDv3,2020.2.5,Win32,60,,,left,1,3.5411,0,13,13,27,1,10000,0,61000,150
,,,,,,,,,,,,,,,,,,,,,,,13/11/2021,36,2021-11-13_09h33.48.592,tareaTDv3,2020.2.5,Win32,60,,,right,0,1.9336,0,14,14,21,1,10000,0,40000,91
,,,,,,,,,,,,,,,,,,,,,,,13/11/2021,36,2021-11-13_09h33.48.592,tareaTDv3,2020.2.5,Win32,60,,,right,1,2.1118,0,15,15,43,1,5000,0,106000,29
,,,,,,,,,,,,,,,,,,,,,,,13/11/2021,36,2021-11-13_09h33.48.592,tareaTDv3,2020.2.5,Win32,60,,,right,0,3.0061,0,16,16,26,1,10000,0,39000,150
,,,,,,,,,,,,,,,,,,,,,,,13/11/2021,36,2021-11-13_09h33.48.592,tareaTDv3,2020.2.5,Win32,60,,,left,0,8.5053,0,17,17,80,1,25000,0,35000,90
,,,,,,,,,,,,,,,,,,,,,,,13/11/2021,36,2021-11-13_09h33.48.592,tareaTDv3,2020.2.5,Win32,60,,,left,0,2.3277,0,18,18,75,1,25000,0,35000,60
,,,,,,,,,,,,,,,,,,,,,,,13/11/2021,36,2021-11-13_09h33.48.592,tareaTDv3,2020.2.5,Win32,60,,,left,1,1.4707,0,19,19,34,1,5000,0,151000,4
,,,,,,,,,,,,,,,,,,,,,,,13/11/2021,36,2021-11-13_09h33.48.592,tareaTDv3,2020.2.5,Win32,60,,,left,1,2.7254,0,20,20,36,1,5000,0,36000,9
,,,,,,,,,,,,,,,,,,,,,,,13/11/2021,36,2021-11-13_09h33.48.592,tareaTDv3,2020.2.5,Win32,60,,,right,0,3.1342,0,21,21,56,1,5000,0,35000,150
,,,,,,,,,,,,,,,,,,,,,,,13/11/2021,36,2021-11-13_09h33.48.592,tareaTDv3,2020.2.5,Win32,60,,,left,1,1.6343,0,22,22,74,1,25000,0,150000,29
,,,,,,,,,,,,,,,,,,,,,,,13/11/2021,36,2021-11-13_09h33.48.592,tareaTDv3,2020.2.5,Win32,60,,,right,1,1.6675,0,23,23,48,1,5000,0,105000,60
,,,,,,,,,,,,,,,,,,,,,,,13/11/2021,36,2021-11-13_09h33.48.592,tareaTDv3,2020.2.5,Win32,60,,,right,1,2.2583,0,24,24,64,1,25000,0,150000,4
,,,,,,,,,,,,,,,,,,,,,,,13/11/2021,36,2021-11-13_09h33.48.592,tareaTDv3,2020.2.5,Win32,60,,,left,1,1.2745,0,25,25,41,1,5000,0,35000,31
,,,,,,,,,,,,,,,,,,,,,,,13/11/2021,36,2021-11-13_09h33.48.592,tareaTDv3,2020.2.5,Win32,60,,,left,0,1.3227,0,26,26,85,1,25000,0,35000,150
,,,,,,,,,,,,,,,,,,,,,,,13/11/2021,36,2021-11-13_09h33.48.592,tareaTDv3,2020.2.5,Win32,60,,,left,1,4.1201,0,27,27,17,1,10000,0,60000,60
,,,,,,,,,,,,,,,,,,,,,,,13/11/2021,36,2021-11-13_09h33.48.592,tareaTDv3,2020.2.5,Win32,60,,,right,1,1.5905,0,28,28,10,1,10000,0,21000,31
,,,,,,,,,,,,,,,,,,,,,,,13/11/2021,36,2021-11-13_09h33.48.592,tareaTDv3,2020.2.5,Win32,60,,,left,1,2.8416,0,29,29,54,1,5000,0,150000,90
,,,,,,,,,,,,,,,,,,,,,,,13/11/2021,36,2021-11-13_09h33.48.592,tareaTDv3,2020.2.5,Win32,60,,,left,1,1.8034,0,30,30,38,1,5000,0,104000,10
,,,,,,,,,,,,,,,,,,,,,,,13/11/2021,36,2021-11-13_09h33.48.592,tareaTDv3,2020.2.5,Win32,60,,,right,0,2.6006,0,31,31,88,1,25000,0,125000,149
,,,,,,,,,,,,,,,,,,,,,,,13/11/2021,36,2021-11-13_09h33.48.592,tareaTDv3,2020.2.5,Win32,60,,,left,1,2.0835,0,32,32,0,1,10000,0,20000,5
,,,,,,,,,,,,,,,,,,,,,,,13/11/2021,36,2021-11-13_09h33.48.592,tareaTDv3,2020.2.5,Win32,60,,,left,1,1.1514,0,33,33,24,1,10000,0,149000,89
,,,,,,,,,,,,,,,,,,,,,,,13/11/2021,36,2021-11-13_09h33.48.592,tareaTDv3,2020.2.5,Win32,60,,,left,1,1.2687,0,34,34,22,1,10000,0,61000,89
,,,,,,,,,,,,,,,,,,,,,,,13/11/2021,36,2021-11-13_09h33.48.592,tareaTDv3,2020.2.5,Win32,60,,,left,1,1.5566,0,35,35,59,1,5000,0,151000,150
,,,,,,,,,,,,,,,,,,,,,,,13/11/2021,36,2021-11-13_09h33.48.592,tareaTDv3,2020.2.5,Win32,60,,,right,1,0.9536,0,36,36,39,1,5000,0,149000,10
,,,,,,,,,,,,,,,,,,,,,,,13/11/2021,36,2021-11-13_09h33.48.592,tareaTDv3,2020.2.5,Win32,60,,,left,1,0.4839,0,37,37,63,1,25000,0,125000,4
,,,,,,,,,,,,,,,,,,,,,,,13/11/2021,36,2021-11-13_09h33.48.592,tareaTDv3,2020.2.5,Win32,60,,,right,1,0.7417,0,38,38,14,1,10000,0,150000,30
,,,,,,,,,,,,,,,,,,,,,,,13/11/2021,36,2021-11-13_09h33.48.592,tareaTDv3,2020.2.5,Win32,60,,,left,1,0.4911,0,39,39,12,1,10000,0,60000,29
,,,,,,,,,,,,,,,,,,,,,,,13/11/2021,36,2021-11-13_09h33.48.592,tareaTDv3,2020.2.5,Win32,60,,,left,1,2.2675,0,40,40,35,1,5000,0,15000,11
,,,,,,,,,,,,,,,,,,,,,,,13/11/2021,36,2021-11-13_09h33.48.592,tareaTDv3,2020.2.5,Win32,60,,,right,0,1.2025,0,41,41,86,1,25000,0,55000,151
,,,,,,,,,,,,,,,,,,,,,,,13/11/2021,36,2021-11-13_09h33.48.592,tareaTDv3,2020.2.5,Win32,60,,,right,1,1.0177,0,42,42,31,1,5000,0,35000,6
,,,,,,,,,,,,,,,,,,,,,,,13/11/2021,36,2021-11-13_09h33.48.592,tareaTDv3,2020.2.5,Win32,60,,,right,1,1.9677,0,43,43,18,1,10000,0,110000,60
,,,,,,,,,,,,,,,,,,,,,,,13/11/2021,36,2021-11-13_09h33.48.592,tareaTDv3,2020.2.5,Win32,60,,,left,1,1.187,0,44,44,1,1,10000,0,39000,6
,,,,,,,,,,,,,,,,,,,,,,,13/11/2021,36,2021-11-13_09h33.48.592,tareaTDv3,2020.2.5,Win32,60,,,left,1,0.8377,0,45,45,77,1,25000,0,75000,59
,,,,,,,,,,,,,,,,,,,,,,,13/11/2021,36,2021-11-13_09h33.48.592,tareaTDv3,2020.2.5,Win32,60,,,right,1,0.8715,0,46,46,13,1,10000,0,111000,30
,,,,,,,,,,,,,,,,,,,,,,,13/11/2021,36,2021-11-13_09h33.48.592,tareaTDv3,2020.2.5,Win32,60,,,right,0,2.4554,0,47,47,15,1,10000,0,20000,59
,,,,,,,,,,,,,,,,,,,,,,,13/11/2021,36,2021-11-13_09h33.48.592,tareaTDv3,2020.2.5,Win32,60,,,right,1,1.4179,0,48,48,79,1,25000,0,150000,61
,,,,,,,,,,,,,,,,,,,,,,,13/11/2021,36,2021-11-13_09h33.48.592,tareaTDv3,2020.2.5,Win32,60,,,right,1,1.538,0,49,49,83,1,25000,0,125000,89
,,,,,,,,,,,,,,,,,,,,,,,13/11/2021,36,2021-11-13_09h33.48.592,tareaTDv3,2020.2.5,Win32,60,,,right,1,1.0341,0,50,50,60,1,25000,0,35000,5
,,,,,,,,,,,,,,,,,,,,,,,13/11/2021,36,2021-11-13_09h33.48.592,tareaTDv3,2020.2.5,Win32,60,,,right,1,1.3773,0,51,51,23,1,10000,0,110000,90
,,,,,,,,,,,,,,,,,,,,,,,13/11/2021,36,2021-11-13_09h33.48.592,tareaTDv3,2020.2.5,Win32,60,,,right,0,1.4376,0,52,52,81,1,25000,0,55000,90
,,,,,,,,,,,,,,,,,,,,,,,13/11/2021,36,2021-11-13_09h33.48.592,tareaTDv3,2020.2.5,Win32,60,,,left,0,1.4945,0,53,53,20,1,10000,0,20000,90
,,,,,,,,,,,,,,,,,,,,,,,13/11/2021,36,2021-11-13_09h33.48.592,tareaTDv3,2020.2.5,Win32,60,,,left,0,2.7668,0,54,54,5,1,10000,0,19000,11
,,,,,,,,,,,,,,,,,,,,,,,13/11/2021,36,2021-11-13_09h33.48.592,tareaTDv3,2020.2.5,Win32,60,,,left,1,9.0426,0,55,55,42,1,5000,0,56000,29
,,,,,,,,,,,,,,,,,,,,,,,13/11/2021,36,2021-11-13_09h33.48.592,tareaTDv3,2020.2.5,Win32,60,,,left,1,1.2915,0,56,56,9,1,10000,0,151000,11
,,,,,,,,,,,,,,,,,,,,,,,13/11/2021,36,2021-11-13_09h33.48.592,tareaTDv3,2020.2.5,Win32,60,,,right,1,0.923,0,57,57,69,1,25000,0,150000,9
,,,,,,,,,,,,,,,,,,,,,,,13/11/2021,36,2021-11-13_09h33.48.592,tareaTDv3,2020.2.5,Win32,60,,,right,1,1.7692,0,58,58,53,1,5000,0,104000,90
,,,,,,,,,,,,,,,,,,,,,,,13/11/2021,36,2021-11-13_09h33.48.592,tareaTDv3,2020.2.5,Win32,60,,,right,1,1.8453,0,59,59,33,1,5000,0,104000,5
,,,,,,,,,,,,,,,,,,,,,,,13/11/2021,36,2021-11-13_09h33.48.592,tareaTDv3,2020.2.5,Win32,60,,,right,0,4.1903,0,60,60,16,1,10000,0,39000,59
,,,,,,,,,,,,,,,,,,,,,,,13/11/2021,36,2021-11-13_09h33.48.592,tareaTDv3,2020.2.5,Win32,60,,,right,1,1.5163,0,61,61,6,1,10000,0,40000,10
,,,,,,,,,,,,,,,,,,,,,,,13/11/2021,36,2021-11-13_09h33.48.592,tareaTDv3,2020.2.5,Win32,60,,,left,1,1.1045,0,62,62,61,1,25000,0,55000,6
,,,,,,,,,,,,,,,,,,,,,,,13/11/2021,36,2021-11-13_09h33.48.592,tareaTDv3,2020.2.5,Win32,60,,,right,0,1.2706,0,63,63,55,1,5000,0,14000,149
,,,,,,,,,,,,,,,,,,,,,,,13/11/2021,36,2021-11-13_09h33.48.592,tareaTDv3,2020.2.5,Win32,60,,,left,0,1.6547,0,64,64,45,1,5000,0,15000,61
,,,,,,,,,,,,,,,,,,,,,,,13/11/2021,36,2021-11-13_09h33.48.592,tareaTDv3,2020.2.5,Win32,60,,,right,1,1.4504,0,65,65,82,1,25000,0,75000,90
,,,,,,,,,,,,,,,,,,,,,,,13/11/2021,36,2021-11-13_09h33.48.592,tareaTDv3,2020.2.5,Win32,60,,,right,1,1.9526,0,66,66,19,1,10000,0,149000,61
,,,,,,,,,,,,,,,,,,,,,,,13/11/2021,36,2021-11-13_09h33.48.592,tareaTDv3,2020.2.5,Win32,60,,,right,1,1.1893,0,67,67,73,1,25000,0,125000,31
,,,,,,,,,,,,,,,,,,,,,,,13/11/2021,36,2021-11-13_09h33.48.592,tareaTDv3,2020.2.5,Win32,60,,,right,0,1.7674,0,68,68,40,1,5000,0,14000,31
,,,,,,,,,,,,,,,,,,,,,,,13/11/2021,36,2021-11-13_09h33.48.592,tareaTDv3,2020.2.5,Win32,60,,,left,1,3.5258,0,69,69,7,1,10000,0,59000,9
,,,,,,,,,,,,,,,,,,,,,,,13/11/2021,36,2021-11-13_09h33.48.592,tareaTDv3,2020.2.5,Win32,60,,,left,0,1.2435,0,70,70,46,1,5000,0,36000,61
,,,,,,,,,,,,,,,,,,,,,,,13/11/2021,36,2021-11-13_09h33.48.592,tareaTDv3,2020.2.5,Win32,60,,,left,0,2.0933,0,71,71,51,1,5000,0,35000,89
,,,,,,,,,,,,,,,,,,,,,,,13/11/2021,36,2021-11-13_09h33.48.592,tareaTDv3,2020.2.5,Win32,60,,,left,1,0.8761,0,72,72,68,1,25000,0,125000,9
,,,,,,,,,,,,,,,,,,,,,,,13/11/2021,36,2021-11-13_09h33.48.592,tareaTDv3,2020.2.5,Win32,60,,,left,0,3.4363,0,73,73,28,1,10000,0,109000,149
,,,,,,,,,,,,,,,,,,,,,,,13/11/2021,36,2021-11-13_09h33.48.592,tareaTDv3,2020.2.5,Win32,60,,,left,1,1.9251,0,74,74,89,1,25000,0,150000,150
,,,,,,,,,,,,,,,,,,,,,,,13/11/2021,36,2021-11-13_09h33.48.592,tareaTDv3,2020.2.5,Win32,60,,,right,1,1.2922,0,75,75,66,1,25000,0,55000,11
,,,,,,,,,,,,,,,,,,,,,,,13/11/2021,36,2021-11-13_09h33.48.592,tareaTDv3,2020.2.5,Win32,60,,,left,1,1.9342,0,76,76,47,1,5000,0,56000,60
,,,,,,,,,,,,,,,,,,,,,,,13/11/2021,36,2021-11-13_09h33.48.592,tareaTDv3,2020.2.5,Win32,60,,,right,0,3.7175,0,77,77,65,1,25000,0,35000,11
,,,,,,,,,,,,,,,,,,,,,,,13/11/2021,36,2021-11-13_09h33.48.592,tareaTDv3,2020.2.5,Win32,60,,,left,1,2.7998,0,78,78,71,1,25000,0,55000,30
,,,,,,,,,,,,,,,,,,,,,,,13/11/2021,36,2021-11-13_09h33.48.592,tareaTDv3,2020.2.5,Win32,60,,,right,1,1.0577,0,79,79,4,1,10000,0,150000,5
,,,,,,,,,,,,,,,,,,,,,,,13/11/2021,36,2021-11-13_09h33.48.592,tareaTDv3,2020.2.5,Win32,60,,,left,0,3.4178,0,80,80,70,1,25000,0,35000,30
,,,,,,,,,,,,,,,,,,,,,,,13/11/2021,36,2021-11-13_09h33.48.592,tareaTDv3,2020.2.5,Win32,60,,,right,1,1.7165,0,81,81,49,1,5000,0,149000,59
,,,,,,,,,,,,,,,,,,,,,,,13/11/2021,36,2021-11-13_09h33.48.592,tareaTDv3,2020.2.5,Win32,60,,,right,0,1.4578,0,82,82,72,1,25000,0,75000,31
,,,,,,,,,,,,,,,,,,,,,,,13/11/2021,36,2021-11-13_09h33.48.592,tareaTDv3,2020.2.5,Win32,60,,,right,0,1.0673,0,83,83,52,1,5000,0,56000,89
,,,,,,,,,,,,,,,,,,,,,,,13/11/2021,36,2021-11-13_09h33.48.592,tareaTDv3,2020.2.5,Win32,60,,,left,1,0.8841,0,84,84,32,1,5000,0,54000,5
,,,,,,,,,,,,,,,,,,,,,,,13/11/2021,36,2021-11-13_09h33.48.592,tareaTDv3,2020.2.5,Win32,60,,,left,1,1.5669,0,85,85,76,1,25000,0,55000,60
,,,,,,,,,,,,,,,,,,,,,,,13/11/2021,36,2021-11-13_09h33.48.592,tareaTDv3,2020.2.5,Win32,60,,,left,0,1.5901,0,86,86,57,1,5000,0,55000,151
,,,,,,,,,,,,,,,,,,,,,,,13/11/2021,36,2021-11-13_09h33.48.592,tareaTDv3,2020.2.5,Win32,60,,,right,1,3.2407,0,87,87,29,1,10000,0,151000,151
,,,,,,,,,,,,,,,,,,,,,,,13/11/2021,36,2021-11-13_09h33.48.592,tareaTDv3,2020.2.5,Win32,60,,,right,1,1.4489,0,88,88,62,1,25000,0,75000,5
,,,,,,,,,,,,,,,,,,,,,,,13/11/2021,36,2021-11-13_09h33.48.592,tareaTDv3,2020.2.5,Win32,60,,,right,1,2.6671,0,89,89,11,1,10000,0,39000,29
