key1.keys,key1.rt,key2.keys,key2.rt,key2_2.keys,key2_2.rt,key2_3.keys,key2_3.rt,key3.keys,key3.rt,key4.keys,key4.rt,respP.keys,respP.corr,respP.rt,Practice.thisRepN,Practice.thisTrialN,Practice.thisN,Practice.thisIndex,Practice.ran,ssAmount,llAmount,llDelay,session,participant,date,expName,psychopyVersion,OS,frameRate,key5.keys,key5.rt,respT.keys,respT.corr,respT.rt,trials.thisRepN,trials.thisTrialN,trials.thisN,trials.thisIndex,trials.ran,ss_Amt,ss_Delay,ll_Amt,ll_Delay,key_resp_4.keys,key_resp_4.rt
space,10.3543,space,2.7552,space,0.3388,space,13.1721,left,20.0237,space,3.5056,right,1,5.1059,0,0,0,0,1,10000,109000,9,002,445,2022-03-05_09h42.25.201,tareaTDv3,2020.2.5,Win32,60,,,,,,,,,,,,,,,,
,,,,,,,,,,,,right,0,6.0399,0,1,1,1,1,25000,35000,150,002,445,2022-03-05_09h42.25.201,tareaTDv3,2020.2.5,Win32,60,,,,,,,,,,,,,,,,
,,,,,,,,,,,,left,0,3.5085,0,2,2,2,1,10000,19000,89,002,445,2022-03-05_09h42.25.201,tareaTDv3,2020.2.5,Win32,60,,,,,,,,,,,,,,,,
,,,,,,,,,,,,,,,,,,,,,,,002,445,2022-03-05_09h42.25.201,tareaTDv3,2020.2.5,Win32,60,g,20.9731,left,1,4.5268,0,0,0,89,1,25000,0,150000,150,,
,,,,,,,,,,,,,,,,,,,,,,,002,445,2022-03-05_09h42.25.201,tareaTDv3,2020.2.5,Win32,60,,,left,1,2.8065,0,1,1,43,1,5000,0,106000,29,,
,,,,,,,,,,,,,,,,,,,,,,,002,445,2022-03-05_09h42.25.201,tareaTDv3,2020.2.5,Win32,60,,,left,1,5.9564,0,2,2,52,1,5000,0,56000,89,,
,,,,,,,,,,,,,,,,,,,,,,,002,445,2022-03-05_09h42.25.201,tareaTDv3,2020.2.5,Win32,60,,,left,1,2.5394,0,3,3,30,1,5000,0,16000,4,,
,,,,,,,,,,,,,,,,,,,,,,,002,445,2022-03-05_09h42.25.201,tareaTDv3,2020.2.5,Win32,60,,,left,0,5.0096,0,4,4,88,1,25000,0,125000,149,,
,,,,,,,,,,,,,,,,,,,,,,,002,445,2022-03-05_09h42.25.201,tareaTDv3,2020.2.5,Win32,60,,,right,1,5.3902,0,5,5,72,1,25000,0,75000,31,,
,,,,,,,,,,,,,,,,,,,,,,,002,445,2022-03-05_09h42.25.201,tareaTDv3,2020.2.5,Win32,60,,,right,1,2.0233,0,6,6,48,1,5000,0,105000,60,,
,,,,,,,,,,,,,,,,,,,,,,,002,445,2022-03-05_09h42.25.201,tareaTDv3,2020.2.5,Win32,60,,,right,1,3.3729,0,7,7,17,1,10000,0,60000,60,,
,,,,,,,,,,,,,,,,,,,,,,,002,445,2022-03-05_09h42.25.201,tareaTDv3,2020.2.5,Win32,60,,,left,1,3.557,0,8,8,83,1,25000,0,125000,89,,
,,,,,,,,,,,,,,,,,,,,,,,002,445,2022-03-05_09h42.25.201,tareaTDv3,2020.2.5,Win32,60,,,left,1,3.6258,0,9,9,40,1,5000,0,14000,31,,
,,,,,,,,,,,,,,,,,,,,,,,002,445,2022-03-05_09h42.25.201,tareaTDv3,2020.2.5,Win32,60,,,left,1,3.1231,0,10,10,65,1,25000,0,35000,11,,
,,,,,,,,,,,,,,,,,,,,,,,002,445,2022-03-05_09h42.25.201,tareaTDv3,2020.2.5,Win32,60,,,left,1,9.09,0,11,11,35,1,5000,0,15000,11,,
,,,,,,,,,,,,,,,,,,,,,,,002,445,2022-03-05_09h42.25.201,tareaTDv3,2020.2.5,Win32,60,,,right,1,1.7234,0,12,12,71,1,25000,0,55000,30,,
,,,,,,,,,,,,,,,,,,,,,,,002,445,2022-03-05_09h42.25.201,tareaTDv3,2020.2.5,Win32,60,,,left,1,1.9436,0,13,13,4,1,10000,0,150000,5,,
,,,,,,,,,,,,,,,,,,,,,,,002,445,2022-03-05_09h42.25.201,tareaTDv3,2020.2.5,Win32,60,,,left,1,3.4234,0,14,14,38,1,5000,0,104000,10,,
,,,,,,,,,,,,,,,,,,,,,,,002,445,2022-03-05_09h42.25.201,tareaTDv3,2020.2.5,Win32,60,,,right,1,2.0895,0,15,15,73,1,25000,0,125000,31,,
,,,,,,,,,,,,,,,,,,,,,,,002,445,2022-03-05_09h42.25.201,tareaTDv3,2020.2.5,Win32,60,,,left,1,14.99,0,16,16,10,1,10000,0,21000,31,,
,,,,,,,,,,,,,,,,,,,,,,,002,445,2022-03-05_09h42.25.201,tareaTDv3,2020.2.5,Win32,60,,,left,1,1.6732,0,17,17,23,1,10000,0,110000,90,,
,,,,,,,,,,,,,,,,,,,,,,,002,445,2022-03-05_09h42.25.201,tareaTDv3,2020.2.5,Win32,60,,,left,0,2.9236,0,18,18,77,1,25000,0,75000,59,,
,,,,,,,,,,,,,,,,,,,,,,,002,445,2022-03-05_09h42.25.201,tareaTDv3,2020.2.5,Win32,60,,,right,1,1.4565,0,19,19,74,1,25000,0,150000,29,,
,,,,,,,,,,,,,,,,,,,,,,,002,445,2022-03-05_09h42.25.201,tareaTDv3,2020.2.5,Win32,60,,,right,0,2.7061,0,20,20,84,1,25000,0,150000,89,,
,,,,,,,,,,,,,,,,,,,,,,,002,445,2022-03-05_09h42.25.201,tareaTDv3,2020.2.5,Win32,60,,,left,1,2.4062,0,21,21,50,1,5000,0,15000,91,,
,,,,,,,,,,,,,,,,,,,,,,,002,445,2022-03-05_09h42.25.201,tareaTDv3,2020.2.5,Win32,60,,,right,1,5.323,0,22,22,86,1,25000,0,55000,151,,
,,,,,,,,,,,,,,,,,,,,,,,002,445,2022-03-05_09h42.25.201,tareaTDv3,2020.2.5,Win32,60,,,right,0,2.8729,0,23,23,70,1,25000,0,35000,30,,
,,,,,,,,,,,,,,,,,,,,,,,002,445,2022-03-05_09h42.25.201,tareaTDv3,2020.2.5,Win32,60,,,right,1,0.6071,0,24,24,46,1,5000,0,36000,61,,
,,,,,,,,,,,,,,,,,,,,,,,002,445,2022-03-05_09h42.25.201,tareaTDv3,2020.2.5,Win32,60,,,right,1,3.0232,0,25,25,49,1,5000,0,149000,59,,
,,,,,,,,,,,,,,,,,,,,,,,002,445,2022-03-05_09h42.25.201,tareaTDv3,2020.2.5,Win32,60,,,right,0,2.1563,0,26,26,75,1,25000,0,35000,60,,
,,,,,,,,,,,,,,,,,,,,,,,002,445,2022-03-05_09h42.25.201,tareaTDv3,2020.2.5,Win32,60,,,left,1,0.5601,0,27,27,32,1,5000,0,54000,5,,
,,,,,,,,,,,,,,,,,,,,,,,002,445,2022-03-05_09h42.25.201,tareaTDv3,2020.2.5,Win32,60,,,left,1,1.0234,0,28,28,87,1,25000,0,75000,151,,
,,,,,,,,,,,,,,,,,,,,,,,002,445,2022-03-05_09h42.25.201,tareaTDv3,2020.2.5,Win32,60,,,right,1,0.5563,0,29,29,31,1,5000,0,35000,6,,
,,,,,,,,,,,,,,,,,,,,,,,002,445,2022-03-05_09h42.25.201,tareaTDv3,2020.2.5,Win32,60,,,left,0,1.3385,0,30,30,0,1,10000,0,20000,5,,
,,,,,,,,,,,,,,,,,,,,,,,002,445,2022-03-05_09h42.25.201,tareaTDv3,2020.2.5,Win32,60,,,right,1,0.69,0,31,31,2,1,10000,0,61000,4,,
,,,,,,,,,,,,,,,,,,,,,,,002,445,2022-03-05_09h42.25.201,tareaTDv3,2020.2.5,Win32,60,,,left,1,0.99,0,32,32,37,1,5000,0,56000,9,,
,,,,,,,,,,,,,,,,,,,,,,,002,445,2022-03-05_09h42.25.201,tareaTDv3,2020.2.5,Win32,60,,,left,1,0.4398,0,33,33,29,1,10000,0,151000,151,,
,,,,,,,,,,,,,,,,,,,,,,,002,445,2022-03-05_09h42.25.201,tareaTDv3,2020.2.5,Win32,60,,,right,1,2.7901,0,34,34,78,1,25000,0,125000,59,,
,,,,,,,,,,,,,,,,,,,,,,,002,445,2022-03-05_09h42.25.201,tareaTDv3,2020.2.5,Win32,60,,,right,1,0.7224,0,35,35,24,1,10000,0,149000,89,,
,,,,,,,,,,,,,,,,,,,,,,,002,445,2022-03-05_09h42.25.201,tareaTDv3,2020.2.5,Win32,60,,,left,1,0.8565,0,36,36,68,1,25000,0,125000,9,,
,,,,,,,,,,,,,,,,,,,,,,,002,445,2022-03-05_09h42.25.201,tareaTDv3,2020.2.5,Win32,60,,,right,1,0.5433,0,37,37,21,1,10000,0,40000,91,,
,,,,,,,,,,,,,,,,,,,,,,,002,445,2022-03-05_09h42.25.201,tareaTDv3,2020.2.5,Win32,60,,,right,1,0.2731,0,38,38,53,1,5000,0,104000,90,,
,,,,,,,,,,,,,,,,,,,,,,,002,445,2022-03-05_09h42.25.201,tareaTDv3,2020.2.5,Win32,60,,,left,1,1.3235,0,39,39,69,1,25000,0,150000,9,,
,,,,,,,,,,,,,,,,,,,,,,,002,445,2022-03-05_09h42.25.201,tareaTDv3,2020.2.5,Win32,60,,,left,1,0.2744,0,40,40,19,1,10000,0,149000,61,,
,,,,,,,,,,,,,,,,,,,,,,,002,445,2022-03-05_09h42.25.201,tareaTDv3,2020.2.5,Win32,60,,,right,1,0.2558,0,41,41,45,1,5000,0,15000,61,,
,,,,,,,,,,,,,,,,,,,,,,,002,445,2022-03-05_09h42.25.201,tareaTDv3,2020.2.5,Win32,60,,,left,1,0.1235,0,42,42,57,1,5000,0,55000,151,,
,,,,,,,,,,,,,,,,,,,,,,,002,445,2022-03-05_09h42.25.201,tareaTDv3,2020.2.5,Win32,60,,,right,1,0.1563,0,43,43,34,1,5000,0,151000,4,,
,,,,,,,,,,,,,,,,,,,,,,,002,445,2022-03-05_09h42.25.201,tareaTDv3,2020.2.5,Win32,60,,,left,1,0.1906,0,44,44,42,1,5000,0,56000,29,,
,,,,,,,,,,,,,,,,,,,,,,,002,445,2022-03-05_09h42.25.201,tareaTDv3,2020.2.5,Win32,60,,,right,1,0.9403,0,45,45,3,1,10000,0,109000,5,,
,,,,,,,,,,,,,,,,,,,,,,,002,445,2022-03-05_09h42.25.201,tareaTDv3,2020.2.5,Win32,60,,,left,1,1.423,0,46,46,15,1,10000,0,20000,59,,
,,,,,,,,,,,,,,,,,,,,,,,002,445,2022-03-05_09h42.25.201,tareaTDv3,2020.2.5,Win32,60,,,left,1,1.8725,0,47,47,22,1,10000,0,61000,89,,
,,,,,,,,,,,,,,,,,,,,,,,002,445,2022-03-05_09h42.25.201,tareaTDv3,2020.2.5,Win32,60,,,left,1,0.4734,0,48,48,9,1,10000,0,151000,11,,
,,,,,,,,,,,,,,,,,,,,,,,002,445,2022-03-05_09h42.25.201,tareaTDv3,2020.2.5,Win32,60,,,left,1,0.6394,0,49,49,47,1,5000,0,56000,60,,
,,,,,,,,,,,,,,,,,,,,,,,002,445,2022-03-05_09h42.25.201,tareaTDv3,2020.2.5,Win32,60,,,left,1,1.3063,0,50,50,60,1,25000,0,35000,5,,
,,,,,,,,,,,,,,,,,,,,,,,002,445,2022-03-05_09h42.25.201,tareaTDv3,2020.2.5,Win32,60,,,right,1,1.0897,0,51,51,67,1,25000,0,75000,10,,
,,,,,,,,,,,,,,,,,,,,,,,002,445,2022-03-05_09h42.25.201,tareaTDv3,2020.2.5,Win32,60,,,left,1,1.6741,0,52,52,5,1,10000,0,19000,11,,
,,,,,,,,,,,,,,,,,,,,,,,002,445,2022-03-05_09h42.25.201,tareaTDv3,2020.2.5,Win32,60,,,left,1,0.5393,0,53,53,82,1,25000,0,75000,90,,
,,,,,,,,,,,,,,,,,,,,,,,002,445,2022-03-05_09h42.25.201,tareaTDv3,2020.2.5,Win32,60,,,left,1,0.3413,0,54,54,11,1,10000,0,39000,29,,
,,,,,,,,,,,,,,,,,,,,,,,002,445,2022-03-05_09h42.25.201,tareaTDv3,2020.2.5,Win32,60,,,right,1,0.8591,0,55,55,44,1,5000,0,150000,30,,
,,,,,,,,,,,,,,,,,,,,,,,002,445,2022-03-05_09h42.25.201,tareaTDv3,2020.2.5,Win32,60,,,right,0,5.1228,0,56,56,25,1,10000,0,10000,150,,
,,,,,,,,,,,,,,,,,,,,,,,002,445,2022-03-05_09h42.25.201,tareaTDv3,2020.2.5,Win32,60,,,left,1,1.5901,0,57,57,36,1,5000,0,36000,9,,
,,,,,,,,,,,,,,,,,,,,,,,002,445,2022-03-05_09h42.25.201,tareaTDv3,2020.2.5,Win32,60,,,right,1,2.39,0,58,58,41,1,5000,0,35000,31,,
,,,,,,,,,,,,,,,,,,,,,,,002,445,2022-03-05_09h42.25.201,tareaTDv3,2020.2.5,Win32,60,,,right,1,0.6901,0,59,59,6,1,10000,0,40000,10,,
,,,,,,,,,,,,,,,,,,,,,,,002,445,2022-03-05_09h42.25.201,tareaTDv3,2020.2.5,Win32,60,,,right,1,3.1727,0,60,60,27,1,10000,0,61000,150,,
,,,,,,,,,,,,,,,,,,,,,,,002,445,2022-03-05_09h42.25.201,tareaTDv3,2020.2.5,Win32,60,,,left,0,5.7901,0,61,61,28,1,10000,0,109000,149,,
,,,,,,,,,,,,,,,,,,,,,,,002,445,2022-03-05_09h42.25.201,tareaTDv3,2020.2.5,Win32,60,,,left,1,1.14,0,62,62,33,1,5000,0,104000,5,,
,,,,,,,,,,,,,,,,,,,,,,,002,445,2022-03-05_09h42.25.201,tareaTDv3,2020.2.5,Win32,60,,,left,1,3.4763,0,63,63,59,1,5000,0,151000,150,,
,,,,,,,,,,,,,,,,,,,,,,,002,445,2022-03-05_09h42.25.201,tareaTDv3,2020.2.5,Win32,60,,,left,1,2.4765,0,64,64,54,1,5000,0,150000,90,,
,,,,,,,,,,,,,,,,,,,,,,,002,445,2022-03-05_09h42.25.201,tareaTDv3,2020.2.5,Win32,60,,,left,1,8.0766,0,65,65,26,1,10000,0,39000,150,,
,,,,,,,,,,,,,,,,,,,,,,,002,445,2022-03-05_09h42.25.201,tareaTDv3,2020.2.5,Win32,60,,,right,1,1.2759,0,66,66,66,1,25000,0,55000,11,,
,,,,,,,,,,,,,,,,,,,,,,,002,445,2022-03-05_09h42.25.201,tareaTDv3,2020.2.5,Win32,60,,,right,1,1.7084,0,67,67,56,1,5000,0,35000,150,,
,,,,,,,,,,,,,,,,,,,,,,,002,445,2022-03-05_09h42.25.201,tareaTDv3,2020.2.5,Win32,60,,,right,1,1.34,0,68,68,81,1,25000,0,55000,90,,
,,,,,,,,,,,,,,,,,,,,,,,002,445,2022-03-05_09h42.25.201,tareaTDv3,2020.2.5,Win32,60,,,left,1,0.8906,0,69,69,8,1,10000,0,111000,10,,
,,,,,,,,,,,,,,,,,,,,,,,002,445,2022-03-05_09h42.25.201,tareaTDv3,2020.2.5,Win32,60,,,left,1,1.2567,0,70,70,55,1,5000,0,14000,149,,
,,,,,,,,,,,,,,,,,,,,,,,002,445,2022-03-05_09h42.25.201,tareaTDv3,2020.2.5,Win32,60,,,right,1,0.6892,0,71,71,63,1,25000,0,125000,4,,
,,,,,,,,,,,,,,,,,,,,,,,002,445,2022-03-05_09h42.25.201,tareaTDv3,2020.2.5,Win32,60,,,right,1,0.8399,0,72,72,80,1,25000,0,35000,90,,
,,,,,,,,,,,,,,,,,,,,,,,002,445,2022-03-05_09h42.25.201,tareaTDv3,2020.2.5,Win32,60,,,left,1,0.5067,0,73,73,51,1,5000,0,35000,89,,
,,,,,,,,,,,,,,,,,,,,,,,002,445,2022-03-05_09h42.25.201,tareaTDv3,2020.2.5,Win32,60,,,left,1,0.3232,0,74,74,64,1,25000,0,150000,4,,
,,,,,,,,,,,,,,,,,,,,,,,002,445,2022-03-05_09h42.25.201,tareaTDv3,2020.2.5,Win32,60,,,right,1,1.8234,0,75,75,14,1,10000,0,150000,30,,
,,,,,,,,,,,,,,,,,,,,,,,002,445,2022-03-05_09h42.25.201,tareaTDv3,2020.2.5,Win32,60,,,right,1,1.4732,0,76,76,61,1,25000,0,55000,6,,
,,,,,,,,,,,,,,,,,,,,,,,002,445,2022-03-05_09h42.25.201,tareaTDv3,2020.2.5,Win32,60,,,left,1,0.5728,0,77,77,1,1,10000,0,39000,6,,
,,,,,,,,,,,,,,,,,,,,,,,002,445,2022-03-05_09h42.25.201,tareaTDv3,2020.2.5,Win32,60,,,right,1,0.8403,0,78,78,76,1,25000,0,55000,60,,
,,,,,,,,,,,,,,,,,,,,,,,002,445,2022-03-05_09h42.25.201,tareaTDv3,2020.2.5,Win32,60,,,left,1,1.0556,0,79,79,12,1,10000,0,60000,29,,
,,,,,,,,,,,,,,,,,,,,,,,002,445,2022-03-05_09h42.25.201,tareaTDv3,2020.2.5,Win32,60,,,right,1,0.5252,0,80,80,58,1,5000,0,106000,152,,
,,,,,,,,,,,,,,,,,,,,,,,002,445,2022-03-05_09h42.25.201,tareaTDv3,2020.2.5,Win32,60,,,right,1,0.3898,0,81,81,39,1,5000,0,149000,10,,
,,,,,,,,,,,,,,,,,,,,,,,002,445,2022-03-05_09h42.25.201,tareaTDv3,2020.2.5,Win32,60,,,left,1,0.6226,0,82,82,62,1,25000,0,75000,5,,
,,,,,,,,,,,,,,,,,,,,,,,002,445,2022-03-05_09h42.25.201,tareaTDv3,2020.2.5,Win32,60,,,left,1,1.1395,0,83,83,16,1,10000,0,39000,59,,
,,,,,,,,,,,,,,,,,,,,,,,002,445,2022-03-05_09h42.25.201,tareaTDv3,2020.2.5,Win32,60,,,right,1,6.7398,0,84,84,7,1,10000,0,59000,9,,
,,,,,,,,,,,,,,,,,,,,,,,002,445,2022-03-05_09h42.25.201,tareaTDv3,2020.2.5,Win32,60,,,right,1,1.4594,0,85,85,20,1,10000,0,20000,90,,
,,,,,,,,,,,,,,,,,,,,,,,002,445,2022-03-05_09h42.25.201,tareaTDv3,2020.2.5,Win32,60,,,right,1,0.7397,0,86,86,79,1,25000,0,150000,61,,
,,,,,,,,,,,,,,,,,,,,,,,002,445,2022-03-05_09h42.25.201,tareaTDv3,2020.2.5,Win32,60,,,right,1,0.4901,0,87,87,18,1,10000,0,110000,60,,
,,,,,,,,,,,,,,,,,,,,,,,002,445,2022-03-05_09h42.25.201,tareaTDv3,2020.2.5,Win32,60,,,left,1,1.2219,0,88,88,85,1,25000,0,35000,150,,
,,,,,,,,,,,,,,,,,,,,,,,002,445,2022-03-05_09h42.25.201,tareaTDv3,2020.2.5,Win32,60,,,right,1,1.2565,0,89,89,13,1,10000,0,111000,30,,
,,,,,,,,,,,,,,,,,,,,,,,002,445,2022-03-05_09h42.25.201,tareaTDv3,2020.2.5,Win32,60,,,,,,,,,,,,,,,right,1.6366
