key1.keys,key1.rt,key2.keys,key2.rt,key2_2.keys,key2_2.rt,key2_3.keys,key2_3.rt,key3.keys,key3.rt,key4.keys,key4.rt,respP.keys,respP.corr,respP.rt,Practice.thisRepN,Practice.thisTrialN,Practice.thisN,Practice.thisIndex,Practice.ran,ssAmount,llAmount,llDelay,session,participant,date,expName,psychopyVersion,OS,frameRate,key5.keys,key5.rt,respT.keys,respT.corr,respT.rt,trials.thisRepN,trials.thisTrialN,trials.thisN,trials.thisIndex,trials.ran,ss_Amt,ss_Delay,ll_Amt,ll_Delay
space,5.2987,space,30.2195,space,27.4521,space,11.4692,right,8.7966,space,2.9691,left,0,6.5857,0,0,0,0,1,10000,109000,9,002,473,2022-03-05_08h53.43.146,tareaTDv3,2020.2.5,Win32,60,,,,,,,,,,,,,,
,,,,,,,,,,,,right,0,11.4769,0,1,1,1,1,25000,35000,150,002,473,2022-03-05_08h53.43.146,tareaTDv3,2020.2.5,Win32,60,,,,,,,,,,,,,,
,,,,,,,,,,,,right,1,15.1845,0,2,2,2,1,10000,19000,89,002,473,2022-03-05_08h53.43.146,tareaTDv3,2020.2.5,Win32,60,,,,,,,,,,,,,,
,,,,,,,,,,,,,,,,,,,,,,,002,473,2022-03-05_08h53.43.146,tareaTDv3,2020.2.5,Win32,60,g,22.3694,right,1,9.4844,0,0,0,9,1,10000,0,151000,11
,,,,,,,,,,,,,,,,,,,,,,,002,473,2022-03-05_08h53.43.146,tareaTDv3,2020.2.5,Win32,60,,,left,1,3.8087,0,1,1,5,1,10000,0,19000,11
,,,,,,,,,,,,,,,,,,,,,,,002,473,2022-03-05_08h53.43.146,tareaTDv3,2020.2.5,Win32,60,,,left,1,3.4378,0,2,2,11,1,10000,0,39000,29
,,,,,,,,,,,,,,,,,,,,,,,002,473,2022-03-05_08h53.43.146,tareaTDv3,2020.2.5,Win32,60,,,left,1,3.8179,0,3,3,29,1,10000,0,151000,151
,,,,,,,,,,,,,,,,,,,,,,,002,473,2022-03-05_08h53.43.146,tareaTDv3,2020.2.5,Win32,60,,,right,1,3.6017,0,4,4,57,1,5000,0,55000,151
,,,,,,,,,,,,,,,,,,,,,,,002,473,2022-03-05_08h53.43.146,tareaTDv3,2020.2.5,Win32,60,,,left,0,2.1341,0,5,5,85,1,25000,0,35000,150
,,,,,,,,,,,,,,,,,,,,,,,002,473,2022-03-05_08h53.43.146,tareaTDv3,2020.2.5,Win32,60,,,right,0,5.0889,0,6,6,70,1,25000,0,35000,30
,,,,,,,,,,,,,,,,,,,,,,,002,473,2022-03-05_08h53.43.146,tareaTDv3,2020.2.5,Win32,60,,,right,0,9.5766,0,7,7,20,1,10000,0,20000,90
,,,,,,,,,,,,,,,,,,,,,,,002,473,2022-03-05_08h53.43.146,tareaTDv3,2020.2.5,Win32,60,,,left,1,3.3247,0,8,8,6,1,10000,0,40000,10
,,,,,,,,,,,,,,,,,,,,,,,002,473,2022-03-05_08h53.43.146,tareaTDv3,2020.2.5,Win32,60,,,right,1,3.5788,0,9,9,61,1,25000,0,55000,6
,,,,,,,,,,,,,,,,,,,,,,,002,473,2022-03-05_08h53.43.146,tareaTDv3,2020.2.5,Win32,60,,,left,1,1.1201,0,10,10,38,1,5000,0,104000,10
,,,,,,,,,,,,,,,,,,,,,,,002,473,2022-03-05_08h53.43.146,tareaTDv3,2020.2.5,Win32,60,,,left,1,2.2602,0,11,11,37,1,5000,0,56000,9
,,,,,,,,,,,,,,,,,,,,,,,002,473,2022-03-05_08h53.43.146,tareaTDv3,2020.2.5,Win32,60,,,right,1,2.0174,0,12,12,67,1,25000,0,75000,10
,,,,,,,,,,,,,,,,,,,,,,,002,473,2022-03-05_08h53.43.146,tareaTDv3,2020.2.5,Win32,60,,,left,1,3.0712,0,13,13,64,1,25000,0,150000,4
,,,,,,,,,,,,,,,,,,,,,,,002,473,2022-03-05_08h53.43.146,tareaTDv3,2020.2.5,Win32,60,,,left,1,1.4171,0,14,14,43,1,5000,0,106000,29
,,,,,,,,,,,,,,,,,,,,,,,002,473,2022-03-05_08h53.43.146,tareaTDv3,2020.2.5,Win32,60,,,left,1,1.152,0,15,15,8,1,10000,0,111000,10
,,,,,,,,,,,,,,,,,,,,,,,002,473,2022-03-05_08h53.43.146,tareaTDv3,2020.2.5,Win32,60,,,right,0,4.854,0,16,16,80,1,25000,0,35000,90
,,,,,,,,,,,,,,,,,,,,,,,002,473,2022-03-05_08h53.43.146,tareaTDv3,2020.2.5,Win32,60,,,right,1,3.5744,0,17,17,30,1,5000,0,16000,4
,,,,,,,,,,,,,,,,,,,,,,,002,473,2022-03-05_08h53.43.146,tareaTDv3,2020.2.5,Win32,60,,,left,1,6.8269,0,18,18,28,1,10000,0,109000,149
,,,,,,,,,,,,,,,,,,,,,,,002,473,2022-03-05_08h53.43.146,tareaTDv3,2020.2.5,Win32,60,,,left,1,1.8855,0,19,19,83,1,25000,0,125000,89
,,,,,,,,,,,,,,,,,,,,,,,002,473,2022-03-05_08h53.43.146,tareaTDv3,2020.2.5,Win32,60,,,left,1,1.2523,0,20,20,3,1,10000,0,109000,5
,,,,,,,,,,,,,,,,,,,,,,,002,473,2022-03-05_08h53.43.146,tareaTDv3,2020.2.5,Win32,60,,,left,1,1.5725,0,21,21,1,1,10000,0,39000,6
,,,,,,,,,,,,,,,,,,,,,,,002,473,2022-03-05_08h53.43.146,tareaTDv3,2020.2.5,Win32,60,,,right,0,3.0179,0,22,22,75,1,25000,0,35000,60
,,,,,,,,,,,,,,,,,,,,,,,002,473,2022-03-05_08h53.43.146,tareaTDv3,2020.2.5,Win32,60,,,right,0,5.0421,0,23,23,59,1,5000,0,151000,150
,,,,,,,,,,,,,,,,,,,,,,,002,473,2022-03-05_08h53.43.146,tareaTDv3,2020.2.5,Win32,60,,,left,1,1.2913,0,24,24,68,1,25000,0,125000,9
,,,,,,,,,,,,,,,,,,,,,,,002,473,2022-03-05_08h53.43.146,tareaTDv3,2020.2.5,Win32,60,,,left,0,7.5678,0,25,25,25,1,10000,0,10000,150
,,,,,,,,,,,,,,,,,,,,,,,002,473,2022-03-05_08h53.43.146,tareaTDv3,2020.2.5,Win32,60,,,right,1,2.1108,0,26,26,42,1,5000,0,56000,29
,,,,,,,,,,,,,,,,,,,,,,,002,473,2022-03-05_08h53.43.146,tareaTDv3,2020.2.5,Win32,60,,,right,1,3.2511,0,27,27,73,1,25000,0,125000,31
,,,,,,,,,,,,,,,,,,,,,,,002,473,2022-03-05_08h53.43.146,tareaTDv3,2020.2.5,Win32,60,,,left,1,2.2704,0,28,28,2,1,10000,0,61000,4
,,,,,,,,,,,,,,,,,,,,,,,002,473,2022-03-05_08h53.43.146,tareaTDv3,2020.2.5,Win32,60,,,left,1,2.9023,0,29,29,14,1,10000,0,150000,30
,,,,,,,,,,,,,,,,,,,,,,,002,473,2022-03-05_08h53.43.146,tareaTDv3,2020.2.5,Win32,60,,,right,1,2.7734,0,30,30,45,1,5000,0,15000,61
,,,,,,,,,,,,,,,,,,,,,,,002,473,2022-03-05_08h53.43.146,tareaTDv3,2020.2.5,Win32,60,,,right,0,5.0504,0,31,31,15,1,10000,0,20000,59
,,,,,,,,,,,,,,,,,,,,,,,002,473,2022-03-05_08h53.43.146,tareaTDv3,2020.2.5,Win32,60,,,left,1,6.7062,0,32,32,22,1,10000,0,61000,89
,,,,,,,,,,,,,,,,,,,,,,,002,473,2022-03-05_08h53.43.146,tareaTDv3,2020.2.5,Win32,60,,,right,1,1.5927,0,33,33,63,1,25000,0,125000,4
,,,,,,,,,,,,,,,,,,,,,,,002,473,2022-03-05_08h53.43.146,tareaTDv3,2020.2.5,Win32,60,,,left,1,1.5174,0,34,34,62,1,25000,0,75000,5
,,,,,,,,,,,,,,,,,,,,,,,002,473,2022-03-05_08h53.43.146,tareaTDv3,2020.2.5,Win32,60,,,right,1,1.3173,0,35,35,36,1,5000,0,36000,9
,,,,,,,,,,,,,,,,,,,,,,,002,473,2022-03-05_08h53.43.146,tareaTDv3,2020.2.5,Win32,60,,,right,1,1.8884,0,36,36,78,1,25000,0,125000,59
,,,,,,,,,,,,,,,,,,,,,,,002,473,2022-03-05_08h53.43.146,tareaTDv3,2020.2.5,Win32,60,,,right,1,1.639,0,37,37,77,1,25000,0,75000,59
,,,,,,,,,,,,,,,,,,,,,,,002,473,2022-03-05_08h53.43.146,tareaTDv3,2020.2.5,Win32,60,,,left,1,1.5015,0,38,38,39,1,5000,0,149000,10
,,,,,,,,,,,,,,,,,,,,,,,002,473,2022-03-05_08h53.43.146,tareaTDv3,2020.2.5,Win32,60,,,left,1,2.4011,0,39,39,46,1,5000,0,36000,61
,,,,,,,,,,,,,,,,,,,,,,,002,473,2022-03-05_08h53.43.146,tareaTDv3,2020.2.5,Win32,60,,,left,1,0.9621,0,40,40,13,1,10000,0,111000,30
,,,,,,,,,,,,,,,,,,,,,,,002,473,2022-03-05_08h53.43.146,tareaTDv3,2020.2.5,Win32,60,,,right,1,2.7189,0,41,41,65,1,25000,0,35000,11
,,,,,,,,,,,,,,,,,,,,,,,002,473,2022-03-05_08h53.43.146,tareaTDv3,2020.2.5,Win32,60,,,left,1,2.6285,0,42,42,60,1,25000,0,35000,5
,,,,,,,,,,,,,,,,,,,,,,,002,473,2022-03-05_08h53.43.146,tareaTDv3,2020.2.5,Win32,60,,,left,1,5.7419,0,43,43,50,1,5000,0,15000,91
,,,,,,,,,,,,,,,,,,,,,,,002,473,2022-03-05_08h53.43.146,tareaTDv3,2020.2.5,Win32,60,,,right,0,2.2844,0,44,44,21,1,10000,0,40000,91
,,,,,,,,,,,,,,,,,,,,,,,002,473,2022-03-05_08h53.43.146,tareaTDv3,2020.2.5,Win32,60,,,right,1,1.2348,0,45,45,33,1,5000,0,104000,5
,,,,,,,,,,,,,,,,,,,,,,,002,473,2022-03-05_08h53.43.146,tareaTDv3,2020.2.5,Win32,60,,,right,1,3.7011,0,46,46,58,1,5000,0,106000,152
,,,,,,,,,,,,,,,,,,,,,,,002,473,2022-03-05_08h53.43.146,tareaTDv3,2020.2.5,Win32,60,,,left,1,1.0583,0,47,47,24,1,10000,0,149000,89
,,,,,,,,,,,,,,,,,,,,,,,002,473,2022-03-05_08h53.43.146,tareaTDv3,2020.2.5,Win32,60,,,right,0,3.6268,0,48,48,55,1,5000,0,14000,149
,,,,,,,,,,,,,,,,,,,,,,,002,473,2022-03-05_08h53.43.146,tareaTDv3,2020.2.5,Win32,60,,,left,1,3.3566,0,49,49,47,1,5000,0,56000,60
,,,,,,,,,,,,,,,,,,,,,,,002,473,2022-03-05_08h53.43.146,tareaTDv3,2020.2.5,Win32,60,,,right,0,1.834,0,50,50,81,1,25000,0,55000,90
,,,,,,,,,,,,,,,,,,,,,,,002,473,2022-03-05_08h53.43.146,tareaTDv3,2020.2.5,Win32,60,,,right,1,1.7504,0,51,51,79,1,25000,0,150000,61
,,,,,,,,,,,,,,,,,,,,,,,002,473,2022-03-05_08h53.43.146,tareaTDv3,2020.2.5,Win32,60,,,left,1,6.4671,0,52,52,27,1,10000,0,61000,150
,,,,,,,,,,,,,,,,,,,,,,,002,473,2022-03-05_08h53.43.146,tareaTDv3,2020.2.5,Win32,60,,,left,1,2.6395,0,53,53,54,1,5000,0,150000,90
,,,,,,,,,,,,,,,,,,,,,,,002,473,2022-03-05_08h53.43.146,tareaTDv3,2020.2.5,Win32,60,,,right,1,3.051,0,54,54,35,1,5000,0,15000,11
,,,,,,,,,,,,,,,,,,,,,,,002,473,2022-03-05_08h53.43.146,tareaTDv3,2020.2.5,Win32,60,,,left,0,10.901,0,55,55,84,1,25000,0,150000,89
,,,,,,,,,,,,,,,,,,,,,,,002,473,2022-03-05_08h53.43.146,tareaTDv3,2020.2.5,Win32,60,,,left,1,2.0677,0,56,56,87,1,25000,0,75000,151
,,,,,,,,,,,,,,,,,,,,,,,002,473,2022-03-05_08h53.43.146,tareaTDv3,2020.2.5,Win32,60,,,right,1,6.5009,0,57,57,49,1,5000,0,149000,59
,,,,,,,,,,,,,,,,,,,,,,,002,473,2022-03-05_08h53.43.146,tareaTDv3,2020.2.5,Win32,60,,,left,1,1.6012,0,58,58,76,1,25000,0,55000,60
,,,,,,,,,,,,,,,,,,,,,,,002,473,2022-03-05_08h53.43.146,tareaTDv3,2020.2.5,Win32,60,,,left,0,1.2341,0,59,59,86,1,25000,0,55000,151
,,,,,,,,,,,,,,,,,,,,,,,002,473,2022-03-05_08h53.43.146,tareaTDv3,2020.2.5,Win32,60,,,left,1,1.1546,0,60,60,17,1,10000,0,60000,60
,,,,,,,,,,,,,,,,,,,,,,,002,473,2022-03-05_08h53.43.146,tareaTDv3,2020.2.5,Win32,60,,,right,1,1.623,0,61,61,41,1,5000,0,35000,31
,,,,,,,,,,,,,,,,,,,,,,,002,473,2022-03-05_08h53.43.146,tareaTDv3,2020.2.5,Win32,60,,,right,0,3.6167,0,62,62,26,1,10000,0,39000,150
,,,,,,,,,,,,,,,,,,,,,,,002,473,2022-03-05_08h53.43.146,tareaTDv3,2020.2.5,Win32,60,,,right,1,5.0687,0,63,63,48,1,5000,0,105000,60
,,,,,,,,,,,,,,,,,,,,,,,002,473,2022-03-05_08h53.43.146,tareaTDv3,2020.2.5,Win32,60,,,right,1,5.4282,0,64,64,69,1,25000,0,150000,9
,,,,,,,,,,,,,,,,,,,,,,,002,473,2022-03-05_08h53.43.146,tareaTDv3,2020.2.5,Win32,60,,,left,1,1.374,0,65,65,19,1,10000,0,149000,61
,,,,,,,,,,,,,,,,,,,,,,,002,473,2022-03-05_08h53.43.146,tareaTDv3,2020.2.5,Win32,60,,,right,1,1.0509,0,66,66,4,1,10000,0,150000,5
,,,,,,,,,,,,,,,,,,,,,,,002,473,2022-03-05_08h53.43.146,tareaTDv3,2020.2.5,Win32,60,,,left,1,1.5869,0,67,67,66,1,25000,0,55000,11
,,,,,,,,,,,,,,,,,,,,,,,002,473,2022-03-05_08h53.43.146,tareaTDv3,2020.2.5,Win32,60,,,right,1,1.5736,0,68,68,74,1,25000,0,150000,29
,,,,,,,,,,,,,,,,,,,,,,,002,473,2022-03-05_08h53.43.146,tareaTDv3,2020.2.5,Win32,60,,,right,1,2.5539,0,69,69,52,1,5000,0,56000,89
,,,,,,,,,,,,,,,,,,,,,,,002,473,2022-03-05_08h53.43.146,tareaTDv3,2020.2.5,Win32,60,,,left,1,2.0225,0,70,70,0,1,10000,0,20000,5
,,,,,,,,,,,,,,,,,,,,,,,002,473,2022-03-05_08h53.43.146,tareaTDv3,2020.2.5,Win32,60,,,left,1,3.0015,0,71,71,51,1,5000,0,35000,89
,,,,,,,,,,,,,,,,,,,,,,,002,473,2022-03-05_08h53.43.146,tareaTDv3,2020.2.5,Win32,60,,,left,1,3.2351,0,72,72,89,1,25000,0,150000,150
,,,,,,,,,,,,,,,,,,,,,,,002,473,2022-03-05_08h53.43.146,tareaTDv3,2020.2.5,Win32,60,,,right,1,6.4853,0,73,73,32,1,5000,0,54000,5
,,,,,,,,,,,,,,,,,,,,,,,002,473,2022-03-05_08h53.43.146,tareaTDv3,2020.2.5,Win32,60,,,left,1,5.428,0,74,74,71,1,25000,0,55000,30
,,,,,,,,,,,,,,,,,,,,,,,002,473,2022-03-05_08h53.43.146,tareaTDv3,2020.2.5,Win32,60,,,left,1,1.3581,0,75,75,23,1,10000,0,110000,90
,,,,,,,,,,,,,,,,,,,,,,,002,473,2022-03-05_08h53.43.146,tareaTDv3,2020.2.5,Win32,60,,,right,1,2.0264,0,76,76,53,1,5000,0,104000,90
,,,,,,,,,,,,,,,,,,,,,,,002,473,2022-03-05_08h53.43.146,tareaTDv3,2020.2.5,Win32,60,,,left,1,1.5843,0,77,77,31,1,5000,0,35000,6
,,,,,,,,,,,,,,,,,,,,,,,002,473,2022-03-05_08h53.43.146,tareaTDv3,2020.2.5,Win32,60,,,right,0,1.5846,0,78,78,88,1,25000,0,125000,149
,,,,,,,,,,,,,,,,,,,,,,,002,473,2022-03-05_08h53.43.146,tareaTDv3,2020.2.5,Win32,60,,,right,1,1.2003,0,79,79,44,1,5000,0,150000,30
,,,,,,,,,,,,,,,,,,,,,,,002,473,2022-03-05_08h53.43.146,tareaTDv3,2020.2.5,Win32,60,,,right,1,1.4173,0,80,80,72,1,25000,0,75000,31
,,,,,,,,,,,,,,,,,,,,,,,002,473,2022-03-05_08h53.43.146,tareaTDv3,2020.2.5,Win32,60,,,left,1,1.3125,0,81,81,34,1,5000,0,151000,4
,,,,,,,,,,,,,,,,,,,,,,,002,473,2022-03-05_08h53.43.146,tareaTDv3,2020.2.5,Win32,60,,,left,1,1.5505,0,82,82,12,1,10000,0,60000,29
,,,,,,,,,,,,,,,,,,,,,,,002,473,2022-03-05_08h53.43.146,tareaTDv3,2020.2.5,Win32,60,,,left,1,3.8916,0,83,83,56,1,5000,0,35000,150
,,,,,,,,,,,,,,,,,,,,,,,002,473,2022-03-05_08h53.43.146,tareaTDv3,2020.2.5,Win32,60,,,right,1,3.2745,0,84,84,40,1,5000,0,14000,31
,,,,,,,,,,,,,,,,,,,,,,,002,473,2022-03-05_08h53.43.146,tareaTDv3,2020.2.5,Win32,60,,,right,1,1.2109,0,85,85,82,1,25000,0,75000,90
,,,,,,,,,,,,,,,,,,,,,,,002,473,2022-03-05_08h53.43.146,tareaTDv3,2020.2.5,Win32,60,,,right,1,1.0668,0,86,86,16,1,10000,0,39000,59
,,,,,,,,,,,,,,,,,,,,,,,002,473,2022-03-05_08h53.43.146,tareaTDv3,2020.2.5,Win32,60,,,right,1,0.5843,0,87,87,10,1,10000,0,21000,31
,,,,,,,,,,,,,,,,,,,,,,,002,473,2022-03-05_08h53.43.146,tareaTDv3,2020.2.5,Win32,60,,,left,1,1.1698,0,88,88,18,1,10000,0,110000,60
,,,,,,,,,,,,,,,,,,,,,,,002,473,2022-03-05_08h53.43.146,tareaTDv3,2020.2.5,Win32,60,,,right,1,0.5019,0,89,89,7,1,10000,0,59000,9
