ssAmount,llAmount,llDelay,ss_am,ss_del,ll_am,ll_del,Practice.thisRepN,Practice.thisTrialN,Practice.thisN,Practice.thisIndex,trials.thisRepN,trials.thisTrialN,trials.thisN,trials.thisIndex,key1.keys,key1.rt,key2.keys,key2.rt,key2_2.keys,key2_2.rt,key2_3.keys,key2_3.rt,key3.keys,key3.rt,key4.keys,key4.rt,respP.keys,respP.corr,respP.rt,key5.keys,key5.rt,respT.keys,respT.corr,respT.rt,session,psychopyVersion,frameRate,expName,date,participant,
,,,,,,,,,,,,,,,space,9.24760000315,,,,,,,,,,,,,,,,,,,001,3.0.3,59.78851514989867,ninosDelConv2,2019_May_09_0826,47,
,,,,,,,,,,,,,,,,,space,33.3432318158,,,,,,,,,,,,,,,,,001,3.0.3,59.78851514989867,ninosDelConv2,2019_May_09_0826,47,
,,,,,,,,,,,,,,,,,,,space,29.2938557509,,,,,,,,,,,,,,,001,3.0.3,59.78851514989867,ninosDelConv2,2019_May_09_0826,47,
,,,,,,,,,,,,,,,,,,,,,space,8.13206858514,,,,,,,,,,,,,001,3.0.3,59.78851514989867,ninosDelConv2,2019_May_09_0826,47,
,,,,,,,,,,,,,,,,,,,,,,,right,6.18245014269,,,,,,,,,,,001,3.0.3,59.78851514989867,ninosDelConv2,2019_May_09_0826,47,
,,,,,,,,,,,,,,,,,,,,,,,,,space,1.71668598661,,,,,,,,,001,3.0.3,59.78851514989867,ninosDelConv2,2019_May_09_0826,47,
10,109,9,,,,,0,0,0,0,,,,,,,,,,,,,,,,,left,1,3.46654500673,,,,,,001,3.0.3,59.78851514989867,ninosDelConv2,2019_May_09_0826,47,
10,19,89,,,,,0,1,1,2,,,,,,,,,,,,,,,,,right,0,3.83381251898,,,,,,001,3.0.3,59.78851514989867,ninosDelConv2,2019_May_09_0826,47,
25,35,150,,,,,0,2,2,1,,,,,,,,,,,,,,,,,right,0,4.9660836421,,,,,,001,3.0.3,59.78851514989867,ninosDelConv2,2019_May_09_0826,47,
,,,,,,,,,,,,,,,,,,,,,,,,,,,,,,g,77.535393497,,,,001,3.0.3,59.78851514989867,ninosDelConv2,2019_May_09_0826,47,
,,,25,0,55.0,30,,,,,0,0,0,71,,,,,,,,,,,,,,,,,,right,0,6.06583612412,001,3.0.3,59.78851514989867,ninosDelConv2,2019_May_09_0826,47,
,,,5,0,35.0,6,,,,,0,1,1,31,,,,,,,,,,,,,,,,,,left,1,2.35064706765,001,3.0.3,59.78851514989867,ninosDelConv2,2019_May_09_0826,47,
,,,10,0,40.0,91,,,,,0,2,2,21,,,,,,,,,,,,,,,,,,right,1,5.96648254944,001,3.0.3,59.78851514989867,ninosDelConv2,2019_May_09_0826,47,
,,,25,0,125.0,31,,,,,0,3,3,73,,,,,,,,,,,,,,,,,,left,0,9.61539647821,001,3.0.3,59.78851514989867,ninosDelConv2,2019_May_09_0826,47,
,,,25,0,150.0,9,,,,,0,4,4,69,,,,,,,,,,,,,,,,,,right,1,2.63381868741,001,3.0.3,59.78851514989867,ninosDelConv2,2019_May_09_0826,47,
,,,25,0,75.0,10,,,,,0,5,5,67,,,,,,,,,,,,,,,,,,right,1,2.43388500018,001,3.0.3,59.78851514989867,ninosDelConv2,2019_May_09_0826,47,
,,,10,0,151.0,151,,,,,0,6,6,29,,,,,,,,,,,,,,,,,,right,1,6.39921298064,001,3.0.3,59.78851514989867,ninosDelConv2,2019_May_09_0826,47,
,,,5,0,36.0,9,,,,,0,7,7,36,,,,,,,,,,,,,,,,,,right,1,15.0646435153,001,3.0.3,59.78851514989867,ninosDelConv2,2019_May_09_0826,47,
,,,10,0,109.0,149,,,,,0,8,8,28,,,,,,,,,,,,,,,,,,right,1,2.71625829255,001,3.0.3,59.78851514989867,ninosDelConv2,2019_May_09_0826,47,
,,,10,0,61.0,4,,,,,0,9,9,2,,,,,,,,,,,,,,,,,,left,1,1.48378488841,001,3.0.3,59.78851514989867,ninosDelConv2,2019_May_09_0826,47,
,,,10,0,39.0,150,,,,,0,10,10,26,,,,,,,,,,,,,,,,,,left,0,1.68398845429,001,3.0.3,59.78851514989867,ninosDelConv2,2019_May_09_0826,47,
,,,10,0,61.0,89,,,,,0,11,11,22,,,,,,,,,,,,,,,,,,left,0,3.216774147,001,3.0.3,59.78851514989867,ninosDelConv2,2019_May_09_0826,47,
,,,25,0,35.0,5,,,,,0,12,12,60,,,,,,,,,,,,,,,,,,right,1,1.73369557085,001,3.0.3,59.78851514989867,ninosDelConv2,2019_May_09_0826,47,
,,,10,0,61.0,150,,,,,0,13,13,27,,,,,,,,,,,,,,,,,,right,0,9.78162148548,001,3.0.3,59.78851514989867,ninosDelConv2,2019_May_09_0826,47,
,,,5,0,106.0,152,,,,,0,14,14,58,,,,,,,,,,,,,,,,,,left,1,4.51599920867,001,3.0.3,59.78851514989867,ninosDelConv2,2019_May_09_0826,47,
,,,10,0,150.0,5,,,,,0,15,15,4,,,,,,,,,,,,,,,,,,right,1,1.6329766647,001,3.0.3,59.78851514989867,ninosDelConv2,2019_May_09_0826,47,
,,,5,0,55.0,151,,,,,0,16,16,57,,,,,,,,,,,,,,,,,,right,0,5.69995039375,001,3.0.3,59.78851514989867,ninosDelConv2,2019_May_09_0826,47,
,,,5,0,106.0,29,,,,,0,17,17,43,,,,,,,,,,,,,,,,,,right,1,2.36620650161,001,3.0.3,59.78851514989867,ninosDelConv2,2019_May_09_0826,47,
,,,10,0,110.0,60,,,,,0,18,18,18,,,,,,,,,,,,,,,,,,left,1,7.09868787322,001,3.0.3,59.78851514989867,ninosDelConv2,2019_May_09_0826,47,
,,,10,0,39.0,59,,,,,0,19,19,16,,,,,,,,,,,,,,,,,,left,0,3.16667840397,001,3.0.3,59.78851514989867,ninosDelConv2,2019_May_09_0826,47,
,,,5,0,14.0,31,,,,,0,20,20,40,,,,,,,,,,,,,,,,,,right,0,3.88301123446,001,3.0.3,59.78851514989867,ninosDelConv2,2019_May_09_0826,47,
,,,10,0,59.0,9,,,,,0,21,21,7,,,,,,,,,,,,,,,,,,right,1,1.53376959497,001,3.0.3,59.78851514989867,ninosDelConv2,2019_May_09_0826,47,
,,,5,0,15.0,61,,,,,0,22,22,45,,,,,,,,,,,,,,,,,,left,0,3.30010255426,001,3.0.3,59.78851514989867,ninosDelConv2,2019_May_09_0826,47,
,,,5,0,36.0,61,,,,,0,23,23,46,,,,,,,,,,,,,,,,,,left,0,1.65044067381,001,3.0.3,59.78851514989867,ninosDelConv2,2019_May_09_0826,47,
,,,10,0,149.0,61,,,,,0,24,24,19,,,,,,,,,,,,,,,,,,right,1,1.73395105684,001,3.0.3,59.78851514989867,ninosDelConv2,2019_May_09_0826,47,
,,,25,0,125.0,9,,,,,0,25,25,68,,,,,,,,,,,,,,,,,,right,1,1.24987212894,001,3.0.3,59.78851514989867,ninosDelConv2,2019_May_09_0826,47,
,,,10,0,60.0,60,,,,,0,26,26,17,,,,,,,,,,,,,,,,,,left,0,3.6161408308,001,3.0.3,59.78851514989867,ninosDelConv2,2019_May_09_0826,47,
,,,10,0,109.0,5,,,,,0,27,27,3,,,,,,,,,,,,,,,,,,left,1,0.916900347918,001,3.0.3,59.78851514989867,ninosDelConv2,2019_May_09_0826,47,
,,,25,0,75.0,151,,,,,0,28,28,87,,,,,,,,,,,,,,,,,,right,0,2.96706703026,001,3.0.3,59.78851514989867,ninosDelConv2,2019_May_09_0826,47,
,,,5,0,56.0,89,,,,,0,29,29,52,,,,,,,,,,,,,,,,,,right,1,5.64965519728,001,3.0.3,59.78851514989867,ninosDelConv2,2019_May_09_0826,47,
,,,5,0,105.0,60,,,,,0,30,30,48,,,,,,,,,,,,,,,,,,left,1,2.91694507049,001,3.0.3,59.78851514989867,ninosDelConv2,2019_May_09_0826,47,
,,,5,0,35.0,31,,,,,0,31,31,41,,,,,,,,,,,,,,,,,,left,1,2.28341682442,001,3.0.3,59.78851514989867,ninosDelConv2,2019_May_09_0826,47,
,,,25,0,35.0,30,,,,,0,32,32,70,,,,,,,,,,,,,,,,,,left,0,1.69987791218,001,3.0.3,59.78851514989867,ninosDelConv2,2019_May_09_0826,47,
,,,25,0,35.0,150,,,,,0,33,33,85,,,,,,,,,,,,,,,,,,right,0,2.76677453285,001,3.0.3,59.78851514989867,ninosDelConv2,2019_May_09_0826,47,
,,,25,0,75.0,90,,,,,0,34,34,82,,,,,,,,,,,,,,,,,,right,0,1.79980722954,001,3.0.3,59.78851514989867,ninosDelConv2,2019_May_09_0826,47,
,,,25,0,125.0,149,,,,,0,35,35,88,,,,,,,,,,,,,,,,,,left,0,3.68281383719,001,3.0.3,59.78851514989867,ninosDelConv2,2019_May_09_0826,47,
,,,25,0,35.0,90,,,,,0,36,36,80,,,,,,,,,,,,,,,,,,left,0,4.2493950855,001,3.0.3,59.78851514989867,ninosDelConv2,2019_May_09_0826,47,
,,,5,0,35.0,89,,,,,0,37,37,51,,,,,,,,,,,,,,,,,,left,1,7.09785767319,001,3.0.3,59.78851514989867,ninosDelConv2,2019_May_09_0826,47,
,,,10,0,150.0,30,,,,,0,38,38,14,,,,,,,,,,,,,,,,,,right,1,1.65099174157,001,3.0.3,59.78851514989867,ninosDelConv2,2019_May_09_0826,47,
,,,10,0,149.0,89,,,,,0,39,39,24,,,,,,,,,,,,,,,,,,right,1,4.03265486564,001,3.0.3,59.78851514989867,ninosDelConv2,2019_May_09_0826,47,
,,,25,0,150.0,150,,,,,0,40,40,89,,,,,,,,,,,,,,,,,,left,0,1.44998316467,001,3.0.3,59.78851514989867,ninosDelConv2,2019_May_09_0826,47,
,,,25,0,55.0,90,,,,,0,41,41,81,,,,,,,,,,,,,,,,,,left,0,6.43194495514,001,3.0.3,59.78851514989867,ninosDelConv2,2019_May_09_0826,47,
,,,25,0,55.0,60,,,,,0,42,42,76,,,,,,,,,,,,,,,,,,left,0,2.38366074394,001,3.0.3,59.78851514989867,ninosDelConv2,2019_May_09_0826,47,
,,,10,0,20.0,90,,,,,0,43,43,20,,,,,,,,,,,,,,,,,,left,0,1.3491784106,001,3.0.3,59.78851514989867,ninosDelConv2,2019_May_09_0826,47,
,,,10,0,39.0,29,,,,,0,44,44,11,,,,,,,,,,,,,,,,,,left,0,6.19836016279,001,3.0.3,59.78851514989867,ninosDelConv2,2019_May_09_0826,47,
,,,25,0,125.0,89,,,,,0,45,45,83,,,,,,,,,,,,,,,,,,left,1,4.96577161038,001,3.0.3,59.78851514989867,ninosDelConv2,2019_May_09_0826,47,
,,,5,0,151.0,150,,,,,0,46,46,59,,,,,,,,,,,,,,,,,,right,1,4.66699737543,001,3.0.3,59.78851514989867,ninosDelConv2,2019_May_09_0826,47,
,,,25,0,75.0,59,,,,,0,47,47,77,,,,,,,,,,,,,,,,,,left,1,3.50050197542,001,3.0.3,59.78851514989867,ninosDelConv2,2019_May_09_0826,47,
,,,25,0,55.0,6,,,,,0,48,48,61,,,,,,,,,,,,,,,,,,right,1,4.94940767949,001,3.0.3,59.78851514989867,ninosDelConv2,2019_May_09_0826,47,
,,,25,0,55.0,151,,,,,0,49,49,86,,,,,,,,,,,,,,,,,,right,0,9.09867090918,001,3.0.3,59.78851514989867,ninosDelConv2,2019_May_09_0826,47,
,,,10,0,20.0,5,,,,,0,50,50,0,,,,,,,,,,,,,,,,,,left,1,2.04996774299,001,3.0.3,59.78851514989867,ninosDelConv2,2019_May_09_0826,47,
,,,10,0,19.0,11,,,,,0,51,51,5,,,,,,,,,,,,,,,,,,right,1,2.78305672854,001,3.0.3,59.78851514989867,ninosDelConv2,2019_May_09_0826,47,
,,,5,0,151.0,4,,,,,0,52,52,34,,,,,,,,,,,,,,,,,,left,1,1.09993342962,001,3.0.3,59.78851514989867,ninosDelConv2,2019_May_09_0826,47,
,,,25,0,150.0,89,,,,,0,53,53,84,,,,,,,,,,,,,,,,,,right,0,4.23283684114,001,3.0.3,59.78851514989867,ninosDelConv2,2019_May_09_0826,47,
,,,25,0,75.0,5,,,,,0,54,54,62,,,,,,,,,,,,,,,,,,right,1,2.23231507512,001,3.0.3,59.78851514989867,ninosDelConv2,2019_May_09_0826,47,
,,,25,0,150.0,61,,,,,0,55,55,79,,,,,,,,,,,,,,,,,,left,1,1.78359957132,001,3.0.3,59.78851514989867,ninosDelConv2,2019_May_09_0826,47,
,,,5,0,56.0,29,,,,,0,56,56,42,,,,,,,,,,,,,,,,,,right,1,1.78336053528,001,3.0.3,59.78851514989867,ninosDelConv2,2019_May_09_0826,47,
,,,25,0,150.0,4,,,,,0,57,57,64,,,,,,,,,,,,,,,,,,left,1,0.850321927108,001,3.0.3,59.78851514989867,ninosDelConv2,2019_May_09_0826,47,
,,,5,0,14.0,149,,,,,0,58,58,55,,,,,,,,,,,,,,,,,,right,0,2.01752158394,001,3.0.3,59.78851514989867,ninosDelConv2,2019_May_09_0826,47,
,,,5,0,15.0,11,,,,,0,59,59,35,,,,,,,,,,,,,,,,,,right,1,1.81656955322,001,3.0.3,59.78851514989867,ninosDelConv2,2019_May_09_0826,47,
,,,10,0,111.0,30,,,,,0,60,60,13,,,,,,,,,,,,,,,,,,left,1,2.28330116207,001,3.0.3,59.78851514989867,ninosDelConv2,2019_May_09_0826,47,
,,,5,0,150.0,30,,,,,0,61,61,44,,,,,,,,,,,,,,,,,,right,1,3.06634915154,001,3.0.3,59.78851514989867,ninosDelConv2,2019_May_09_0826,47,
,,,25,0,75.0,31,,,,,0,62,62,72,,,,,,,,,,,,,,,,,,right,0,9.78140866617,001,3.0.3,59.78851514989867,ninosDelConv2,2019_May_09_0826,47,
,,,10,0,110.0,90,,,,,0,63,63,23,,,,,,,,,,,,,,,,,,left,1,1.2002164172,001,3.0.3,59.78851514989867,ninosDelConv2,2019_May_09_0826,47,
,,,10,0,39.0,6,,,,,0,64,64,1,,,,,,,,,,,,,,,,,,right,1,2.21674073348,001,3.0.3,59.78851514989867,ninosDelConv2,2019_May_09_0826,47,
,,,5,0,104.0,5,,,,,0,65,65,33,,,,,,,,,,,,,,,,,,left,1,1.11698979372,001,3.0.3,59.78851514989867,ninosDelConv2,2019_May_09_0826,47,
,,,25,0,55.0,11,,,,,0,66,66,66,,,,,,,,,,,,,,,,,,right,1,1.51678262884,001,3.0.3,59.78851514989867,ninosDelConv2,2019_May_09_0826,47,
,,,5,0,15.0,91,,,,,0,67,67,50,,,,,,,,,,,,,,,,,,left,0,2.56663111132,001,3.0.3,59.78851514989867,ninosDelConv2,2019_May_09_0826,47,
,,,25,0,125.0,59,,,,,0,68,68,78,,,,,,,,,,,,,,,,,,left,0,4.5653135865,001,3.0.3,59.78851514989867,ninosDelConv2,2019_May_09_0826,47,
,,,5,0,56.0,60,,,,,0,69,69,47,,,,,,,,,,,,,,,,,,left,0,1.60029198369,001,3.0.3,59.78851514989867,ninosDelConv2,2019_May_09_0826,47,
,,,5,0,104.0,90,,,,,0,70,70,53,,,,,,,,,,,,,,,,,,right,1,2.20080603892,001,3.0.3,59.78851514989867,ninosDelConv2,2019_May_09_0826,47,
,,,25,0,150.0,29,,,,,0,71,71,74,,,,,,,,,,,,,,,,,,right,1,2.33347606938,001,3.0.3,59.78851514989867,ninosDelConv2,2019_May_09_0826,47,
,,,5,0,54.0,5,,,,,0,72,72,32,,,,,,,,,,,,,,,,,,left,1,1.3000377831,001,3.0.3,59.78851514989867,ninosDelConv2,2019_May_09_0826,47,
,,,25,0,35.0,11,,,,,0,73,73,65,,,,,,,,,,,,,,,,,,right,0,3.049576547,001,3.0.3,59.78851514989867,ninosDelConv2,2019_May_09_0826,47,
,,,10,0,60.0,29,,,,,0,74,74,12,,,,,,,,,,,,,,,,,,right,1,2.49978641002,001,3.0.3,59.78851514989867,ninosDelConv2,2019_May_09_0826,47,
,,,5,0,149.0,59,,,,,0,75,75,49,,,,,,,,,,,,,,,,,,right,0,2.66636765748,001,3.0.3,59.78851514989867,ninosDelConv2,2019_May_09_0826,47,
,,,25,0,125.0,4,,,,,0,76,76,63,,,,,,,,,,,,,,,,,,right,1,1.11688543996,001,3.0.3,59.78851514989867,ninosDelConv2,2019_May_09_0826,47,
,,,5,0,56.0,9,,,,,0,77,77,37,,,,,,,,,,,,,,,,,,right,1,0.933458591346,001,3.0.3,59.78851514989867,ninosDelConv2,2019_May_09_0826,47,
,,,10,0,10.01,150,,,,,0,78,78,25,,,,,,,,,,,,,,,,,,right,0,2.68326929025,001,3.0.3,59.78851514989867,ninosDelConv2,2019_May_09_0826,47,
,,,5,0,16.0,4,,,,,0,79,79,30,,,,,,,,,,,,,,,,,,left,1,1.76674266113,001,3.0.3,59.78851514989867,ninosDelConv2,2019_May_09_0826,47,
,,,10,0,40.0,10,,,,,0,80,80,6,,,,,,,,,,,,,,,,,,left,1,2.91623670189,001,3.0.3,59.78851514989867,ninosDelConv2,2019_May_09_0826,47,
,,,10,0,111.0,10,,,,,0,81,81,8,,,,,,,,,,,,,,,,,,right,1,1.80046367785,001,3.0.3,59.78851514989867,ninosDelConv2,2019_May_09_0826,47,
,,,5,0,149.0,10,,,,,0,82,82,39,,,,,,,,,,,,,,,,,,right,1,1.28336233459,001,3.0.3,59.78851514989867,ninosDelConv2,2019_May_09_0826,47,
,,,5,0,35.0,150,,,,,0,83,83,56,,,,,,,,,,,,,,,,,,right,0,1.55025689956,001,3.0.3,59.78851514989867,ninosDelConv2,2019_May_09_0826,47,
,,,25,0,35.0,60,,,,,0,84,84,75,,,,,,,,,,,,,,,,,,right,0,5.36637048516,001,3.0.3,59.78851514989867,ninosDelConv2,2019_May_09_0826,47,
,,,10,0,20.0,59,,,,,0,85,85,15,,,,,,,,,,,,,,,,,,left,0,1.7835661578,001,3.0.3,59.78851514989867,ninosDelConv2,2019_May_09_0826,47,
,,,10,0,151.0,11,,,,,0,86,86,9,,,,,,,,,,,,,,,,,,left,1,1.43333547516,001,3.0.3,59.78851514989867,ninosDelConv2,2019_May_09_0826,47,
,,,5,0,150.0,90,,,,,0,87,87,54,,,,,,,,,,,,,,,,,,left,1,6.88233268121,001,3.0.3,59.78851514989867,ninosDelConv2,2019_May_09_0826,47,
,,,5,0,104.0,10,,,,,0,88,88,38,,,,,,,,,,,,,,,,,,right,1,6.33355574775,001,3.0.3,59.78851514989867,ninosDelConv2,2019_May_09_0826,47,
,,,10,0,21.0,31,,,,,0,89,89,10,,,,,,,,,,,,,,,,,,right,0,1.1169512393,001,3.0.3,59.78851514989867,ninosDelConv2,2019_May_09_0826,47,
