ssAmount,llAmount,llDelay,ss_am,ss_del,ll_am,ll_del,Practice.thisRepN,Practice.thisTrialN,Practice.thisN,Practice.thisIndex,trials.thisRepN,trials.thisTrialN,trials.thisN,trials.thisIndex,key1.keys,key1.rt,key2.keys,key2.rt,key2_2.keys,key2_2.rt,key2_3.keys,key2_3.rt,key3.keys,key3.rt,key4.keys,key4.rt,respP.keys,respP.corr,respP.rt,key5.keys,key5.rt,respT.keys,respT.corr,respT.rt,key_resp_4.keys,key_resp_4.rt,session,psychopyVersion,frameRate,expName,date,participant,
,,,,,,,,,,,,,,,space,32.6933784336,,,,,,,,,,,,,,,,,,,,,001,3.0.3,59.96769348903747,ninosDelConv2,2019_May_09_0753,77,
,,,,,,,,,,,,,,,,,space,22.3960186294,,,,,,,,,,,,,,,,,,,001,3.0.3,59.96769348903747,ninosDelConv2,2019_May_09_0753,77,
,,,,,,,,,,,,,,,,,,,space,16.4306593807,,,,,,,,,,,,,,,,,001,3.0.3,59.96769348903747,ninosDelConv2,2019_May_09_0753,77,
,,,,,,,,,,,,,,,,,,,,,space,4.68273128709,,,,,,,,,,,,,,,001,3.0.3,59.96769348903747,ninosDelConv2,2019_May_09_0753,77,
,,,,,,,,,,,,,,,,,,,,,,,right,9.95933193155,,,,,,,,,,,,,001,3.0.3,59.96769348903747,ninosDelConv2,2019_May_09_0753,77,
,,,,,,,,,,,,,,,,,,,,,,,,,space,2.44995810417,,,,,,,,,,,001,3.0.3,59.96769348903747,ninosDelConv2,2019_May_09_0753,77,
10,109,9,,,,,0,0,0,0,,,,,,,,,,,,,,,,,None,0,,,,,,,,,001,3.0.3,59.96769348903747,ninosDelConv2,2019_May_09_0753,77,
10,19,89,,,,,0,1,1,2,,,,,,,,,,,,,,,,,left,1,4.26642848738,,,,,,,,001,3.0.3,59.96769348903747,ninosDelConv2,2019_May_09_0753,77,
25,35,150,,,,,0,2,2,1,,,,,,,,,,,,,,,,,right,1,6.76588975545,,,,,,,,001,3.0.3,59.96769348903747,ninosDelConv2,2019_May_09_0753,77,
,,,,,,,,,,,,,,,,,,,,,,,,,,,,,,g,260.101068724,,,,,,001,3.0.3,59.96769348903747,ninosDelConv2,2019_May_09_0753,77,
,,,10,0,20.0,5,,,,,0,0,0,0,,,,,,,,,,,,,,,,,,left,0,6.19904796639,,,001,3.0.3,59.96769348903747,ninosDelConv2,2019_May_09_0753,77,
,,,5,0,104.0,10,,,,,0,1,1,38,,,,,,,,,,,,,,,,,,right,1,7.83231155947,,,001,3.0.3,59.96769348903747,ninosDelConv2,2019_May_09_0753,77,
,,,10,0,40.0,91,,,,,0,2,2,21,,,,,,,,,,,,,,,,,,right,0,11.2652183971,,,001,3.0.3,59.96769348903747,ninosDelConv2,2019_May_09_0753,77,
,,,10,0,151.0,11,,,,,0,3,3,9,,,,,,,,,,,,,,,,,,left,0,7.68217816157,,,001,3.0.3,59.96769348903747,ninosDelConv2,2019_May_09_0753,77,
,,,5,0,151.0,150,,,,,0,4,4,59,,,,,,,,,,,,,,,,,,left,1,3.65012208838,,,001,3.0.3,59.96769348903747,ninosDelConv2,2019_May_09_0753,77,
,,,25,0,55.0,60,,,,,0,5,5,76,,,,,,,,,,,,,,,,,,right,1,10.1159409038,,,001,3.0.3,59.96769348903747,ninosDelConv2,2019_May_09_0753,77,
,,,10,0,149.0,61,,,,,0,6,6,19,,,,,,,,,,,,,,,,,,right,0,10.1817813097,,,001,3.0.3,59.96769348903747,ninosDelConv2,2019_May_09_0753,77,
,,,5,0,150.0,30,,,,,0,7,7,44,,,,,,,,,,,,,,,,,,left,1,9.38117575087,,,001,3.0.3,59.96769348903747,ninosDelConv2,2019_May_09_0753,77,
,,,10,0,61.0,89,,,,,0,8,8,22,,,,,,,,,,,,,,,,,,right,1,8.13287959248,,,001,3.0.3,59.96769348903747,ninosDelConv2,2019_May_09_0753,77,
,,,10,0,39.0,6,,,,,0,9,9,1,,,,,,,,,,,,,,,,,,right,1,6.66565277521,,,001,3.0.3,59.96769348903747,ninosDelConv2,2019_May_09_0753,77,
,,,10,0,110.0,90,,,,,0,10,10,23,,,,,,,,,,,,,,,,,,right,1,6.58252566401,,,001,3.0.3,59.96769348903747,ninosDelConv2,2019_May_09_0753,77,
,,,5,0,35.0,31,,,,,0,11,11,41,,,,,,,,,,,,,,,,,,left,0,4.19938518805,,,001,3.0.3,59.96769348903747,ninosDelConv2,2019_May_09_0753,77,
,,,5,0,106.0,152,,,,,0,12,12,58,,,,,,,,,,,,,,,,,,right,1,7.41540731303,,,001,3.0.3,59.96769348903747,ninosDelConv2,2019_May_09_0753,77,
,,,25,0,75.0,5,,,,,0,13,13,62,,,,,,,,,,,,,,,,,,left,1,11.014926156,,,001,3.0.3,59.96769348903747,ninosDelConv2,2019_May_09_0753,77,
,,,10,0,111.0,10,,,,,0,14,14,8,,,,,,,,,,,,,,,,,,left,1,5.96645830246,,,001,3.0.3,59.96769348903747,ninosDelConv2,2019_May_09_0753,77,
,,,25,0,75.0,31,,,,,0,15,15,72,,,,,,,,,,,,,,,,,,left,0,8.33211416192,,,001,3.0.3,59.96769348903747,ninosDelConv2,2019_May_09_0753,77,
,,,25,0,150.0,9,,,,,0,16,16,69,,,,,,,,,,,,,,,,,,left,1,6.4317106274,,,001,3.0.3,59.96769348903747,ninosDelConv2,2019_May_09_0753,77,
,,,5,0,15.0,91,,,,,0,17,17,50,,,,,,,,,,,,,,,,,,right,0,6.81669862382,,,001,3.0.3,59.96769348903747,ninosDelConv2,2019_May_09_0753,77,
,,,5,0,151.0,4,,,,,0,18,18,34,,,,,,,,,,,,,,,,,,right,1,2.08299088571,,,001,3.0.3,59.96769348903747,ninosDelConv2,2019_May_09_0753,77,
,,,10,0,39.0,29,,,,,0,19,19,11,,,,,,,,,,,,,,,,,,left,0,2.46685104165,,,001,3.0.3,59.96769348903747,ninosDelConv2,2019_May_09_0753,77,
,,,25,0,35.0,90,,,,,0,20,20,80,,,,,,,,,,,,,,,,,,left,0,3.43350468576,,,001,3.0.3,59.96769348903747,ninosDelConv2,2019_May_09_0753,77,
,,,25,0,125.0,59,,,,,0,21,21,78,,,,,,,,,,,,,,,,,,right,1,4.66676159576,,,001,3.0.3,59.96769348903747,ninosDelConv2,2019_May_09_0753,77,
,,,5,0,54.0,5,,,,,0,22,22,32,,,,,,,,,,,,,,,,,,right,1,5.64926361339,,,001,3.0.3,59.96769348903747,ninosDelConv2,2019_May_09_0753,77,
,,,10,0,110.0,60,,,,,0,23,23,18,,,,,,,,,,,,,,,,,,right,1,6.78348489432,,,001,3.0.3,59.96769348903747,ninosDelConv2,2019_May_09_0753,77,
,,,10,0,39.0,59,,,,,0,24,24,16,,,,,,,,,,,,,,,,,,left,0,11.5971685746,,,001,3.0.3,59.96769348903747,ninosDelConv2,2019_May_09_0753,77,
,,,5,0,35.0,89,,,,,0,25,25,51,,,,,,,,,,,,,,,,,,right,0,5.86578591587,,,001,3.0.3,59.96769348903747,ninosDelConv2,2019_May_09_0753,77,
,,,5,0,16.0,4,,,,,0,26,26,30,,,,,,,,,,,,,,,,,,right,1,6.84927286627,,,001,3.0.3,59.96769348903747,ninosDelConv2,2019_May_09_0753,77,
,,,25,0,55.0,11,,,,,0,27,27,66,,,,,,,,,,,,,,,,,,right,1,9.26518909587,,,001,3.0.3,59.96769348903747,ninosDelConv2,2019_May_09_0753,77,
,,,25,0,75.0,90,,,,,0,28,28,82,,,,,,,,,,,,,,,,,,left,0,3.71619227808,,,001,3.0.3,59.96769348903747,ninosDelConv2,2019_May_09_0753,77,
,,,5,0,104.0,90,,,,,0,29,29,53,,,,,,,,,,,,,,,,,,right,1,1.73303586571,,,001,3.0.3,59.96769348903747,ninosDelConv2,2019_May_09_0753,77,
,,,10,0,20.0,90,,,,,0,30,30,20,,,,,,,,,,,,,,,,,,left,0,2.31682816613,,,001,3.0.3,59.96769348903747,ninosDelConv2,2019_May_09_0753,77,
,,,5,0,15.0,61,,,,,0,31,31,45,,,,,,,,,,,,,,,,,,left,0,1.63394420408,,,001,3.0.3,59.96769348903747,ninosDelConv2,2019_May_09_0753,77,
,,,10,0,149.0,89,,,,,0,32,32,24,,,,,,,,,,,,,,,,,,right,1,5.4656815622,,,001,3.0.3,59.96769348903747,ninosDelConv2,2019_May_09_0753,77,
,,,10,0,150.0,30,,,,,0,33,33,14,,,,,,,,,,,,,,,,,,left,1,4.59867064888,,,001,3.0.3,59.96769348903747,ninosDelConv2,2019_May_09_0753,77,
,,,10,0,10.01,150,,,,,0,34,34,25,,,,,,,,,,,,,,,,,,left,0,3.63368049311,,,001,3.0.3,59.96769348903747,ninosDelConv2,2019_May_09_0753,77,
,,,25,0,125.0,4,,,,,0,35,35,63,,,,,,,,,,,,,,,,,,left,1,3.56684898539,,,001,3.0.3,59.96769348903747,ninosDelConv2,2019_May_09_0753,77,
,,,10,0,60.0,29,,,,,0,36,36,12,,,,,,,,,,,,,,,,,,right,1,5.06669476861,,,001,3.0.3,59.96769348903747,ninosDelConv2,2019_May_09_0753,77,
,,,5,0,105.0,60,,,,,0,37,37,48,,,,,,,,,,,,,,,,,,right,1,10.8478736035,,,001,3.0.3,59.96769348903747,ninosDelConv2,2019_May_09_0753,77,
,,,10,0,59.0,9,,,,,0,38,38,7,,,,,,,,,,,,,,,,,,right,1,6.16526671825,,,001,3.0.3,59.96769348903747,ninosDelConv2,2019_May_09_0753,77,
,,,5,0,14.0,31,,,,,0,39,39,40,,,,,,,,,,,,,,,,,,left,0,5.53538510576,,,001,3.0.3,59.96769348903747,ninosDelConv2,2019_May_09_0753,77,
,,,5,0,35.0,6,,,,,0,40,40,31,,,,,,,,,,,,,,,,,,left,1,9.99863106664,,,001,3.0.3,59.96769348903747,ninosDelConv2,2019_May_09_0753,77,
,,,5,0,36.0,61,,,,,0,41,41,46,,,,,,,,,,,,,,,,,,left,0,2.24962345324,,,001,3.0.3,59.96769348903747,ninosDelConv2,2019_May_09_0753,77,
,,,25,0,55.0,151,,,,,0,42,42,86,,,,,,,,,,,,,,,,,,left,0,4.48351470986,,,001,3.0.3,59.96769348903747,ninosDelConv2,2019_May_09_0753,77,
,,,25,0,125.0,31,,,,,0,43,43,73,,,,,,,,,,,,,,,,,,right,1,2.03444540966,,,001,3.0.3,59.96769348903747,ninosDelConv2,2019_May_09_0753,77,
,,,25,0,125.0,149,,,,,0,44,44,88,,,,,,,,,,,,,,,,,,left,1,9.58110635309,,,001,3.0.3,59.96769348903747,ninosDelConv2,2019_May_09_0753,77,
,,,5,0,56.0,60,,,,,0,45,45,47,,,,,,,,,,,,,,,,,,right,1,3.30033516511,,,001,3.0.3,59.96769348903747,ninosDelConv2,2019_May_09_0753,77,
,,,10,0,61.0,150,,,,,0,46,46,27,,,,,,,,,,,,,,,,,,left,0,4.15017555049,,,001,3.0.3,59.96769348903747,ninosDelConv2,2019_May_09_0753,77,
,,,10,0,111.0,30,,,,,0,47,47,13,,,,,,,,,,,,,,,,,,right,1,4.04941217601,,,001,3.0.3,59.96769348903747,ninosDelConv2,2019_May_09_0753,77,
,,,25,0,150.0,29,,,,,0,48,48,74,,,,,,,,,,,,,,,,,,right,1,4.36624908075,,,001,3.0.3,59.96769348903747,ninosDelConv2,2019_May_09_0753,77,
,,,5,0,36.0,9,,,,,0,49,49,36,,,,,,,,,,,,,,,,,,left,1,7.46586405206,,,001,3.0.3,59.96769348903747,ninosDelConv2,2019_May_09_0753,77,
,,,25,0,150.0,61,,,,,0,50,50,79,,,,,,,,,,,,,,,,,,left,1,8.8988541672,,,001,3.0.3,59.96769348903747,ninosDelConv2,2019_May_09_0753,77,
,,,25,0,150.0,150,,,,,0,51,51,89,,,,,,,,,,,,,,,,,,left,1,8.54747726582,,,001,3.0.3,59.96769348903747,ninosDelConv2,2019_May_09_0753,77,
,,,10,0,151.0,151,,,,,0,52,52,29,,,,,,,,,,,,,,,,,,left,1,3.44974271441,,,001,3.0.3,59.96769348903747,ninosDelConv2,2019_May_09_0753,77,
,,,25,0,55.0,30,,,,,0,53,53,71,,,,,,,,,,,,,,,,,,left,0,6.74791575642,,,001,3.0.3,59.96769348903747,ninosDelConv2,2019_May_09_0753,77,
,,,25,0,125.0,89,,,,,0,54,54,83,,,,,,,,,,,,,,,,,,right,1,5.84986660257,,,001,3.0.3,59.96769348903747,ninosDelConv2,2019_May_09_0753,77,
,,,25,0,35.0,11,,,,,0,55,55,65,,,,,,,,,,,,,,,,,,left,1,3.23309755232,,,001,3.0.3,59.96769348903747,ninosDelConv2,2019_May_09_0753,77,
,,,10,0,109.0,149,,,,,0,56,56,28,,,,,,,,,,,,,,,,,,left,1,14.5142763876,,,001,3.0.3,59.96769348903747,ninosDelConv2,2019_May_09_0753,77,
,,,10,0,109.0,5,,,,,0,57,57,3,,,,,,,,,,,,,,,,,,left,1,7.58253543125,,,001,3.0.3,59.96769348903747,ninosDelConv2,2019_May_09_0753,77,
,,,5,0,56.0,29,,,,,0,58,58,42,,,,,,,,,,,,,,,,,,right,1,5.43314073328,,,001,3.0.3,59.96769348903747,ninosDelConv2,2019_May_09_0753,77,
,,,25,0,55.0,6,,,,,0,59,59,61,,,,,,,,,,,,,,,,,,left,1,3.9328235602,,,001,3.0.3,59.96769348903747,ninosDelConv2,2019_May_09_0753,77,
,,,25,0,35.0,150,,,,,0,60,60,85,,,,,,,,,,,,,,,,,,right,0,4.86585685611,,,001,3.0.3,59.96769348903747,ninosDelConv2,2019_May_09_0753,77,
,,,5,0,15.0,11,,,,,0,61,61,35,,,,,,,,,,,,,,,,,,right,1,3.03325022757,,,001,3.0.3,59.96769348903747,ninosDelConv2,2019_May_09_0753,77,
,,,25,0,35.0,60,,,,,0,62,62,75,,,,,,,,,,,,,,,,,,left,0,1.38333787397,,,001,3.0.3,59.96769348903747,ninosDelConv2,2019_May_09_0753,77,
,,,25,0,75.0,59,,,,,0,63,63,77,,,,,,,,,,,,,,,,,,left,1,3.14983473066,,,001,3.0.3,59.96769348903747,ninosDelConv2,2019_May_09_0753,77,
,,,5,0,14.0,149,,,,,0,64,64,55,,,,,,,,,,,,,,,,,,left,0,1.46653129859,,,001,3.0.3,59.96769348903747,ninosDelConv2,2019_May_09_0753,77,
,,,25,0,150.0,89,,,,,0,65,65,84,,,,,,,,,,,,,,,,,,right,1,5.33254648373,,,001,3.0.3,59.96769348903747,ninosDelConv2,2019_May_09_0753,77,
,,,25,0,55.0,90,,,,,0,66,66,81,,,,,,,,,,,,,,,,,,right,0,11.8647927581,,,001,3.0.3,59.96769348903747,ninosDelConv2,2019_May_09_0753,77,
,,,5,0,104.0,5,,,,,0,67,67,33,,,,,,,,,,,,,,,,,,left,1,1.68416910386,,,001,3.0.3,59.96769348903747,ninosDelConv2,2019_May_09_0753,77,
,,,10,0,21.0,31,,,,,0,68,68,10,,,,,,,,,,,,,,,,,,right,0,4.1821488603,,,001,3.0.3,59.96769348903747,ninosDelConv2,2019_May_09_0753,77,
,,,10,0,61.0,4,,,,,0,69,69,2,,,,,,,,,,,,,,,,,,right,1,1.46664798912,,,001,3.0.3,59.96769348903747,ninosDelConv2,2019_May_09_0753,77,
,,,25,0,35.0,30,,,,,0,70,70,70,,,,,,,,,,,,,,,,,,right,1,1.31648271997,,,001,3.0.3,59.96769348903747,ninosDelConv2,2019_May_09_0753,77,
,,,10,0,40.0,10,,,,,0,71,71,6,,,,,,,,,,,,,,,,,,left,1,8.93144331733,,,001,3.0.3,59.96769348903747,ninosDelConv2,2019_May_09_0753,77,
,,,10,0,20.0,59,,,,,0,72,72,15,,,,,,,,,,,,,,,,,,left,0,3.13329752069,,,001,3.0.3,59.96769348903747,ninosDelConv2,2019_May_09_0753,77,
,,,25,0,75.0,10,,,,,0,73,73,67,,,,,,,,,,,,,,,,,,left,1,3.4156365823,,,001,3.0.3,59.96769348903747,ninosDelConv2,2019_May_09_0753,77,
,,,25,0,75.0,151,,,,,0,74,74,87,,,,,,,,,,,,,,,,,,right,1,3.86630716966,,,001,3.0.3,59.96769348903747,ninosDelConv2,2019_May_09_0753,77,
,,,5,0,149.0,10,,,,,0,75,75,39,,,,,,,,,,,,,,,,,,left,1,3.68266034685,,,001,3.0.3,59.96769348903747,ninosDelConv2,2019_May_09_0753,77,
,,,10,0,39.0,150,,,,,0,76,76,26,,,,,,,,,,,,,,,,,,left,0,7.99829487316,,,001,3.0.3,59.96769348903747,ninosDelConv2,2019_May_09_0753,77,
,,,10,0,19.0,11,,,,,0,77,77,5,,,,,,,,,,,,,,,,,,right,1,7.24891559687,,,001,3.0.3,59.96769348903747,ninosDelConv2,2019_May_09_0753,77,
,,,10,0,60.0,60,,,,,0,78,78,17,,,,,,,,,,,,,,,,,,right,1,1.63295824314,,,001,3.0.3,59.96769348903747,ninosDelConv2,2019_May_09_0753,77,
,,,25,0,35.0,5,,,,,0,79,79,60,,,,,,,,,,,,,,,,,,left,1,1.0176455169,,,001,3.0.3,59.96769348903747,ninosDelConv2,2019_May_09_0753,77,
,,,5,0,56.0,9,,,,,0,80,80,37,,,,,,,,,,,,,,,,,,left,1,10.4809356863,,,001,3.0.3,59.96769348903747,ninosDelConv2,2019_May_09_0753,77,
,,,25,0,150.0,4,,,,,0,81,81,64,,,,,,,,,,,,,,,,,,right,1,1.08254982531,,,001,3.0.3,59.96769348903747,ninosDelConv2,2019_May_09_0753,77,
,,,5,0,150.0,90,,,,,0,82,82,54,,,,,,,,,,,,,,,,,,right,1,4.69892150862,,,001,3.0.3,59.96769348903747,ninosDelConv2,2019_May_09_0753,77,
,,,5,0,35.0,150,,,,,0,83,83,56,,,,,,,,,,,,,,,,,,left,1,0.582638242748,,,001,3.0.3,59.96769348903747,ninosDelConv2,2019_May_09_0753,77,
,,,5,0,55.0,151,,,,,0,84,84,57,,,,,,,,,,,,,,,,,,left,1,2.39831440756,,,001,3.0.3,59.96769348903747,ninosDelConv2,2019_May_09_0753,77,
,,,5,0,149.0,59,,,,,0,85,85,49,,,,,,,,,,,,,,,,,,left,1,2.35102837067,,,001,3.0.3,59.96769348903747,ninosDelConv2,2019_May_09_0753,77,
,,,10,0,150.0,5,,,,,0,86,86,4,,,,,,,,,,,,,,,,,,left,1,1.20017375099,,,001,3.0.3,59.96769348903747,ninosDelConv2,2019_May_09_0753,77,
,,,5,0,106.0,29,,,,,0,87,87,43,,,,,,,,,,,,,,,,,,right,1,1.55054772785,,,001,3.0.3,59.96769348903747,ninosDelConv2,2019_May_09_0753,77,
,,,25,0,125.0,9,,,,,0,88,88,68,,,,,,,,,,,,,,,,,,left,1,1.96650148323,,,001,3.0.3,59.96769348903747,ninosDelConv2,2019_May_09_0753,77,
,,,5,0,56.0,89,,,,,0,89,89,52,,,,,,,,,,,,,,,,,,left,1,1.91551834904,,,001,3.0.3,59.96769348903747,ninosDelConv2,2019_May_09_0753,77,
,,,,,,,,,,,,,,,,,,,,,,,,,,,,,,,,,,,space,355.11662974,001,3.0.3,59.96769348903747,ninosDelConv2,2019_May_09_0753,77,
