ssAmount,llAmount,llDelay,ss_am,ss_del,ll_am,ll_del,Practice.thisRepN,Practice.thisTrialN,Practice.thisN,Practice.thisIndex,trials.thisRepN,trials.thisTrialN,trials.thisN,trials.thisIndex,key1.keys,key1.rt,key2.keys,key2.rt,key2_2.keys,key2_2.rt,key2_3.keys,key2_3.rt,key3.keys,key3.rt,key4.keys,key4.rt,respP.keys,respP.corr,respP.rt,key5.keys,key5.rt,respT.keys,respT.corr,respT.rt,session,psychopyVersion,frameRate,expName,date,participant,
,,,,,,,,,,,,,,,space,11.0147431516,,,,,,,,,,,,,,,,,,,001,3.0.3,59.770174899829506,ninosDelConv2,2019_May_09_0820,95,
,,,,,,,,,,,,,,,,,space,24.2291382868,,,,,,,,,,,,,,,,,001,3.0.3,59.770174899829506,ninosDelConv2,2019_May_09_0820,95,
,,,,,,,,,,,,,,,,,,,space,24.0795857729,,,,,,,,,,,,,,,001,3.0.3,59.770174899829506,ninosDelConv2,2019_May_09_0820,95,
,,,,,,,,,,,,,,,,,,,,,space,4.73358744849,,,,,,,,,,,,,001,3.0.3,59.770174899829506,ninosDelConv2,2019_May_09_0820,95,
,,,,,,,,,,,,,,,,,,,,,,,right,7.66474032402,,,,,,,,,,,001,3.0.3,59.770174899829506,ninosDelConv2,2019_May_09_0820,95,
,,,,,,,,,,,,,,,,,,,,,,,,,space,3.36779793445,,,,,,,,,001,3.0.3,59.770174899829506,ninosDelConv2,2019_May_09_0820,95,
25,35,150,,,,,0,0,0,1,,,,,,,,,,,,,,,,,right,0,3.13275262062,,,,,,001,3.0.3,59.770174899829506,ninosDelConv2,2019_May_09_0820,95,
10,19,89,,,,,0,1,1,2,,,,,,,,,,,,,,,,,right,0,5.85018171929,,,,,,001,3.0.3,59.770174899829506,ninosDelConv2,2019_May_09_0820,95,
10,109,9,,,,,0,2,2,0,,,,,,,,,,,,,,,,,left,1,3.19949416816,,,,,,001,3.0.3,59.770174899829506,ninosDelConv2,2019_May_09_0820,95,
,,,,,,,,,,,,,,,,,,,,,,,,,,,,,,g,37.7259788928,,,,001,3.0.3,59.770174899829506,ninosDelConv2,2019_May_09_0820,95,
,,,25,0,55.0,60,,,,,0,0,0,76,,,,,,,,,,,,,,,,,,right,0,5.13322452502,001,3.0.3,59.770174899829506,ninosDelConv2,2019_May_09_0820,95,
,,,10,0,150.0,30,,,,,0,1,1,14,,,,,,,,,,,,,,,,,,left,1,3.38303612266,001,3.0.3,59.770174899829506,ninosDelConv2,2019_May_09_0820,95,
,,,5,0,35.0,6,,,,,0,2,2,31,,,,,,,,,,,,,,,,,,left,1,1.51625910541,001,3.0.3,59.770174899829506,ninosDelConv2,2019_May_09_0820,95,
,,,5,0,15.0,11,,,,,0,3,3,35,,,,,,,,,,,,,,,,,,right,0,2.74969593529,001,3.0.3,59.770174899829506,ninosDelConv2,2019_May_09_0820,95,
,,,10,0,39.0,29,,,,,0,4,4,11,,,,,,,,,,,,,,,,,,right,0,3.54969079467,001,3.0.3,59.770174899829506,ninosDelConv2,2019_May_09_0820,95,
,,,25,0,75.0,5,,,,,0,5,5,62,,,,,,,,,,,,,,,,,,right,1,3.70011771889,001,3.0.3,59.770174899829506,ninosDelConv2,2019_May_09_0820,95,
,,,10,0,39.0,6,,,,,0,6,6,1,,,,,,,,,,,,,,,,,,right,1,3.6321506598,001,3.0.3,59.770174899829506,ninosDelConv2,2019_May_09_0820,95,
,,,25,0,55.0,90,,,,,0,7,7,81,,,,,,,,,,,,,,,,,,right,0,8.13290375285,001,3.0.3,59.770174899829506,ninosDelConv2,2019_May_09_0820,95,
,,,5,0,104.0,5,,,,,0,8,8,33,,,,,,,,,,,,,,,,,,left,1,3.29979797546,001,3.0.3,59.770174899829506,ninosDelConv2,2019_May_09_0820,95,
,,,25,0,55.0,30,,,,,0,9,9,71,,,,,,,,,,,,,,,,,,right,0,4.28296621097,001,3.0.3,59.770174899829506,ninosDelConv2,2019_May_09_0820,95,
,,,10,0,150.0,5,,,,,0,10,10,4,,,,,,,,,,,,,,,,,,left,1,3.13311657263,001,3.0.3,59.770174899829506,ninosDelConv2,2019_May_09_0820,95,
,,,5,0,16.0,4,,,,,0,11,11,30,,,,,,,,,,,,,,,,,,left,1,2.35051894048,001,3.0.3,59.770174899829506,ninosDelConv2,2019_May_09_0820,95,
,,,10,0,39.0,59,,,,,0,12,12,16,,,,,,,,,,,,,,,,,,left,0,1.58386786655,001,3.0.3,59.770174899829506,ninosDelConv2,2019_May_09_0820,95,
,,,25,0,75.0,151,,,,,0,13,13,87,,,,,,,,,,,,,,,,,,left,0,1.81639327388,001,3.0.3,59.770174899829506,ninosDelConv2,2019_May_09_0820,95,
,,,25,0,125.0,59,,,,,0,14,14,78,,,,,,,,,,,,,,,,,,right,0,3.05020022532,001,3.0.3,59.770174899829506,ninosDelConv2,2019_May_09_0820,95,
,,,25,0,150.0,4,,,,,0,15,15,64,,,,,,,,,,,,,,,,,,left,1,3.56717438344,001,3.0.3,59.770174899829506,ninosDelConv2,2019_May_09_0820,95,
,,,10,0,19.0,11,,,,,0,16,16,5,,,,,,,,,,,,,,,,,,right,0,2.81662048725,001,3.0.3,59.770174899829506,ninosDelConv2,2019_May_09_0820,95,
,,,5,0,55.0,151,,,,,0,17,17,57,,,,,,,,,,,,,,,,,,left,0,1.66589540988,001,3.0.3,59.770174899829506,ninosDelConv2,2019_May_09_0820,95,
,,,5,0,15.0,61,,,,,0,18,18,45,,,,,,,,,,,,,,,,,,right,0,1.36668500165,001,3.0.3,59.770174899829506,ninosDelConv2,2019_May_09_0820,95,
,,,25,0,55.0,6,,,,,0,19,19,61,,,,,,,,,,,,,,,,,,right,0,1.63301993022,001,3.0.3,59.770174899829506,ninosDelConv2,2019_May_09_0820,95,
,,,10,0,149.0,89,,,,,0,20,20,24,,,,,,,,,,,,,,,,,,right,0,3.23372727213,001,3.0.3,59.770174899829506,ninosDelConv2,2019_May_09_0820,95,
,,,5,0,106.0,29,,,,,0,21,21,43,,,,,,,,,,,,,,,,,,right,1,2.51559854206,001,3.0.3,59.770174899829506,ninosDelConv2,2019_May_09_0820,95,
,,,10,0,40.0,91,,,,,0,22,22,21,,,,,,,,,,,,,,,,,,right,0,2.01625242224,001,3.0.3,59.770174899829506,ninosDelConv2,2019_May_09_0820,95,
,,,25,0,75.0,59,,,,,0,23,23,77,,,,,,,,,,,,,,,,,,left,0,3.34977304377,001,3.0.3,59.770174899829506,ninosDelConv2,2019_May_09_0820,95,
,,,10,0,151.0,151,,,,,0,24,24,29,,,,,,,,,,,,,,,,,,right,0,3.25024803216,001,3.0.3,59.770174899829506,ninosDelConv2,2019_May_09_0820,95,
,,,5,0,54.0,5,,,,,0,25,25,32,,,,,,,,,,,,,,,,,,right,1,3.1836771518,001,3.0.3,59.770174899829506,ninosDelConv2,2019_May_09_0820,95,
,,,10,0,39.0,150,,,,,0,26,26,26,,,,,,,,,,,,,,,,,,right,0,1.4831168293,001,3.0.3,59.770174899829506,ninosDelConv2,2019_May_09_0820,95,
,,,5,0,105.0,60,,,,,0,27,27,48,,,,,,,,,,,,,,,,,,left,1,3.33405626845,001,3.0.3,59.770174899829506,ninosDelConv2,2019_May_09_0820,95,
,,,5,0,14.0,149,,,,,0,28,28,55,,,,,,,,,,,,,,,,,,right,0,2.53203396872,001,3.0.3,59.770174899829506,ninosDelConv2,2019_May_09_0820,95,
,,,5,0,106.0,152,,,,,0,29,29,58,,,,,,,,,,,,,,,,,,left,0,5.21546385949,001,3.0.3,59.770174899829506,ninosDelConv2,2019_May_09_0820,95,
,,,10,0,110.0,90,,,,,0,30,30,23,,,,,,,,,,,,,,,,,,right,1,4.44850897836,001,3.0.3,59.770174899829506,ninosDelConv2,2019_May_09_0820,95,
,,,5,0,36.0,9,,,,,0,31,31,36,,,,,,,,,,,,,,,,,,left,1,2.79980671452,001,3.0.3,59.770174899829506,ninosDelConv2,2019_May_09_0820,95,
,,,25,0,55.0,151,,,,,0,32,32,86,,,,,,,,,,,,,,,,,,right,0,1.55066904472,001,3.0.3,59.770174899829506,ninosDelConv2,2019_May_09_0820,95,
,,,25,0,35.0,90,,,,,0,33,33,80,,,,,,,,,,,,,,,,,,right,0,1.39833651204,001,3.0.3,59.770174899829506,ninosDelConv2,2019_May_09_0820,95,
,,,10,0,109.0,5,,,,,0,34,34,3,,,,,,,,,,,,,,,,,,left,1,2.14926207112,001,3.0.3,59.770174899829506,ninosDelConv2,2019_May_09_0820,95,
,,,5,0,56.0,60,,,,,0,35,35,47,,,,,,,,,,,,,,,,,,right,0,4.00015164679,001,3.0.3,59.770174899829506,ninosDelConv2,2019_May_09_0820,95,
,,,5,0,151.0,150,,,,,0,36,36,59,,,,,,,,,,,,,,,,,,right,1,3.36716667237,001,3.0.3,59.770174899829506,ninosDelConv2,2019_May_09_0820,95,
,,,5,0,150.0,30,,,,,0,37,37,44,,,,,,,,,,,,,,,,,,left,1,2.98342372198,001,3.0.3,59.770174899829506,ninosDelConv2,2019_May_09_0820,95,
,,,25,0,35.0,5,,,,,0,38,38,60,,,,,,,,,,,,,,,,,,right,0,3.78276675707,001,3.0.3,59.770174899829506,ninosDelConv2,2019_May_09_0820,95,
,,,5,0,35.0,31,,,,,0,39,39,41,,,,,,,,,,,,,,,,,,left,1,11.1315965066,001,3.0.3,59.770174899829506,ninosDelConv2,2019_May_09_0820,95,
,,,10,0,61.0,150,,,,,0,40,40,27,,,,,,,,,,,,,,,,,,right,0,2.35043720528,001,3.0.3,59.770174899829506,ninosDelConv2,2019_May_09_0820,95,
,,,10,0,60.0,60,,,,,0,41,41,17,,,,,,,,,,,,,,,,,,right,1,3.10027142195,001,3.0.3,59.770174899829506,ninosDelConv2,2019_May_09_0820,95,
,,,5,0,14.0,31,,,,,0,42,42,40,,,,,,,,,,,,,,,,,,right,0,2.46758305887,001,3.0.3,59.770174899829506,ninosDelConv2,2019_May_09_0820,95,
,,,10,0,110.0,60,,,,,0,43,43,18,,,,,,,,,,,,,,,,,,right,1,2.54885442415,001,3.0.3,59.770174899829506,ninosDelConv2,2019_May_09_0820,95,
,,,10,0,10.01,150,,,,,0,44,44,25,,,,,,,,,,,,,,,,,,left,0,3.81617994048,001,3.0.3,59.770174899829506,ninosDelConv2,2019_May_09_0820,95,
,,,5,0,151.0,4,,,,,0,45,45,34,,,,,,,,,,,,,,,,,,left,1,1.79965506773,001,3.0.3,59.770174899829506,ninosDelConv2,2019_May_09_0820,95,
,,,25,0,35.0,11,,,,,0,46,46,65,,,,,,,,,,,,,,,,,,right,0,1.56619459111,001,3.0.3,59.770174899829506,ninosDelConv2,2019_May_09_0820,95,
,,,5,0,104.0,90,,,,,0,47,47,53,,,,,,,,,,,,,,,,,,right,1,3.11721576517,001,3.0.3,59.770174899829506,ninosDelConv2,2019_May_09_0820,95,
,,,25,0,125.0,89,,,,,0,48,48,83,,,,,,,,,,,,,,,,,,left,0,2.61570186773,001,3.0.3,59.770174899829506,ninosDelConv2,2019_May_09_0820,95,
,,,5,0,104.0,10,,,,,0,49,49,38,,,,,,,,,,,,,,,,,,right,1,3.69956253748,001,3.0.3,59.770174899829506,ninosDelConv2,2019_May_09_0820,95,
,,,25,0,35.0,30,,,,,0,50,50,70,,,,,,,,,,,,,,,,,,right,0,6.71672329865,001,3.0.3,59.770174899829506,ninosDelConv2,2019_May_09_0820,95,
,,,25,0,150.0,150,,,,,0,51,51,89,,,,,,,,,,,,,,,,,,left,0,3.09905413538,001,3.0.3,59.770174899829506,ninosDelConv2,2019_May_09_0820,95,
,,,25,0,150.0,29,,,,,0,52,52,74,,,,,,,,,,,,,,,,,,left,0,3.71696490515,001,3.0.3,59.770174899829506,ninosDelConv2,2019_May_09_0820,95,
,,,5,0,35.0,89,,,,,0,53,53,51,,,,,,,,,,,,,,,,,,left,0,2.53330831602,001,3.0.3,59.770174899829506,ninosDelConv2,2019_May_09_0820,95,
,,,25,0,35.0,60,,,,,0,54,54,75,,,,,,,,,,,,,,,,,,left,0,3.29963964596,001,3.0.3,59.770174899829506,ninosDelConv2,2019_May_09_0820,95,
,,,5,0,15.0,91,,,,,0,55,55,50,,,,,,,,,,,,,,,,,,right,0,3.41620050231,001,3.0.3,59.770174899829506,ninosDelConv2,2019_May_09_0820,95,
,,,5,0,149.0,10,,,,,0,56,56,39,,,,,,,,,,,,,,,,,,right,1,3.58397993119,001,3.0.3,59.770174899829506,ninosDelConv2,2019_May_09_0820,95,
,,,10,0,60.0,29,,,,,0,57,57,12,,,,,,,,,,,,,,,,,,right,1,8.88119220035,001,3.0.3,59.770174899829506,ninosDelConv2,2019_May_09_0820,95,
,,,5,0,56.0,29,,,,,0,58,58,42,,,,,,,,,,,,,,,,,,left,1,2.10006939806,001,3.0.3,59.770174899829506,ninosDelConv2,2019_May_09_0820,95,
,,,10,0,20.0,90,,,,,0,59,59,20,,,,,,,,,,,,,,,,,,left,0,2.21649711393,001,3.0.3,59.770174899829506,ninosDelConv2,2019_May_09_0820,95,
,,,10,0,111.0,30,,,,,0,60,60,13,,,,,,,,,,,,,,,,,,right,1,4.06659144256,001,3.0.3,59.770174899829506,ninosDelConv2,2019_May_09_0820,95,
,,,10,0,151.0,11,,,,,0,61,61,9,,,,,,,,,,,,,,,,,,left,1,2.28278886154,001,3.0.3,59.770174899829506,ninosDelConv2,2019_May_09_0820,95,
,,,25,0,75.0,31,,,,,0,62,62,72,,,,,,,,,,,,,,,,,,left,0,3.56552117644,001,3.0.3,59.770174899829506,ninosDelConv2,2019_May_09_0820,95,
,,,10,0,61.0,4,,,,,0,63,63,2,,,,,,,,,,,,,,,,,,left,1,1.6345317713,001,3.0.3,59.770174899829506,ninosDelConv2,2019_May_09_0820,95,
,,,5,0,56.0,89,,,,,0,64,64,52,,,,,,,,,,,,,,,,,,right,0,3.66646755533,001,3.0.3,59.770174899829506,ninosDelConv2,2019_May_09_0820,95,
,,,25,0,75.0,90,,,,,0,65,65,82,,,,,,,,,,,,,,,,,,left,0,1.28334712703,001,3.0.3,59.770174899829506,ninosDelConv2,2019_May_09_0820,95,
,,,25,0,150.0,9,,,,,0,66,66,69,,,,,,,,,,,,,,,,,,left,1,2.36636577174,001,3.0.3,59.770174899829506,ninosDelConv2,2019_May_09_0820,95,
,,,25,0,150.0,61,,,,,0,67,67,79,,,,,,,,,,,,,,,,,,left,1,3.06583269499,001,3.0.3,59.770174899829506,ninosDelConv2,2019_May_09_0820,95,
,,,10,0,40.0,10,,,,,0,68,68,6,,,,,,,,,,,,,,,,,,left,1,11.4152232804,001,3.0.3,59.770174899829506,ninosDelConv2,2019_May_09_0820,95,
,,,10,0,111.0,10,,,,,0,69,69,8,,,,,,,,,,,,,,,,,,left,1,4.19981648168,001,3.0.3,59.770174899829506,ninosDelConv2,2019_May_09_0820,95,
,,,10,0,20.0,59,,,,,0,70,70,15,,,,,,,,,,,,,,,,,,right,0,1.95168070914,001,3.0.3,59.770174899829506,ninosDelConv2,2019_May_09_0820,95,
,,,10,0,20.0,5,,,,,0,71,71,0,,,,,,,,,,,,,,,,,,right,1,1.54979360616,001,3.0.3,59.770174899829506,ninosDelConv2,2019_May_09_0820,95,
,,,25,0,150.0,89,,,,,0,72,72,84,,,,,,,,,,,,,,,,,,right,0,2.04997249832,001,3.0.3,59.770174899829506,ninosDelConv2,2019_May_09_0820,95,
,,,25,0,125.0,4,,,,,0,73,73,63,,,,,,,,,,,,,,,,,,right,1,1.8830114482,001,3.0.3,59.770174899829506,ninosDelConv2,2019_May_09_0820,95,
,,,10,0,149.0,61,,,,,0,74,74,19,,,,,,,,,,,,,,,,,,right,0,2.14810698526,001,3.0.3,59.770174899829506,ninosDelConv2,2019_May_09_0820,95,
,,,5,0,56.0,9,,,,,0,75,75,37,,,,,,,,,,,,,,,,,,right,1,1.58337642858,001,3.0.3,59.770174899829506,ninosDelConv2,2019_May_09_0820,95,
,,,5,0,150.0,90,,,,,0,76,76,54,,,,,,,,,,,,,,,,,,right,1,5.9995070193,001,3.0.3,59.770174899829506,ninosDelConv2,2019_May_09_0820,95,
,,,25,0,125.0,149,,,,,0,77,77,88,,,,,,,,,,,,,,,,,,left,0,4.76626912924,001,3.0.3,59.770174899829506,ninosDelConv2,2019_May_09_0820,95,
,,,25,0,35.0,150,,,,,0,78,78,85,,,,,,,,,,,,,,,,,,left,0,2.73245549574,001,3.0.3,59.770174899829506,ninosDelConv2,2019_May_09_0820,95,
,,,25,0,125.0,9,,,,,0,79,79,68,,,,,,,,,,,,,,,,,,right,1,1.86595401261,001,3.0.3,59.770174899829506,ninosDelConv2,2019_May_09_0820,95,
,,,25,0,125.0,31,,,,,0,80,80,73,,,,,,,,,,,,,,,,,,left,0,1.40019739792,001,3.0.3,59.770174899829506,ninosDelConv2,2019_May_09_0820,95,
,,,25,0,75.0,10,,,,,0,81,81,67,,,,,,,,,,,,,,,,,,left,1,1.13410253357,001,3.0.3,59.770174899829506,ninosDelConv2,2019_May_09_0820,95,
,,,5,0,35.0,150,,,,,0,82,82,56,,,,,,,,,,,,,,,,,,left,0,3.13309652451,001,3.0.3,59.770174899829506,ninosDelConv2,2019_May_09_0820,95,
,,,25,0,55.0,11,,,,,0,83,83,66,,,,,,,,,,,,,,,,,,right,1,1.26692455169,001,3.0.3,59.770174899829506,ninosDelConv2,2019_May_09_0820,95,
,,,10,0,21.0,31,,,,,0,84,84,10,,,,,,,,,,,,,,,,,,right,0,2.93288781773,001,3.0.3,59.770174899829506,ninosDelConv2,2019_May_09_0820,95,
,,,5,0,36.0,61,,,,,0,85,85,46,,,,,,,,,,,,,,,,,,left,0,6.06747921882,001,3.0.3,59.770174899829506,ninosDelConv2,2019_May_09_0820,95,
,,,10,0,59.0,9,,,,,0,86,86,7,,,,,,,,,,,,,,,,,,left,1,1.56627426995,001,3.0.3,59.770174899829506,ninosDelConv2,2019_May_09_0820,95,
,,,5,0,149.0,59,,,,,0,87,87,49,,,,,,,,,,,,,,,,,,left,1,1.21746199811,001,3.0.3,59.770174899829506,ninosDelConv2,2019_May_09_0820,95,
,,,10,0,61.0,89,,,,,0,88,88,22,,,,,,,,,,,,,,,,,,right,1,0.883495689835,001,3.0.3,59.770174899829506,ninosDelConv2,2019_May_09_0820,95,
,,,10,0,109.0,149,,,,,0,89,89,28,,,,,,,,,,,,,,,,,,right,1,0.817756038625,001,3.0.3,59.770174899829506,ninosDelConv2,2019_May_09_0820,95,
