ssAmount;llAmount;llDelay;ss_am;ss_del;ll_am;ll_del;Practice.thisRepN;Practice.thisTrialN;Practice.thisN;Practice.thisIndex;trials.thisRepN;trials.thisTrialN;trials.thisN;trials.thisIndex;key1.keys;key1.rt;key2.keys;key2.rt;key2_2.keys;key2_2.rt;key2_3.keys;key2_3.rt;key3.keys;key3.rt;key4.keys;key4.rt;respP.keys;respP.corr;respP.rt;key5.keys;key5.rt;respT.keys;respT.corr;respT.rt;session;psychopyVersion;frameRate;expName;date;participant;;ssAmount,llAmount,llDelay,ss_am,ss_del,ll_am,ll_del,Practice.thisRepN,Practice.thisTrialN,Practice.thisN,Practice.thisIndex,trials.thisRepN,trials.thisTrialN,trials.thisN,trials.thisIndex,key1.keys,key1.rt,key2.keys,key2.rt,key2_2.keys,key2_2.rt,key2_3.keys,key2_3.rt,key3.keys,key3.rt,key4.keys,key4.rt,respP.keys,respP.corr,respP.rt,key5.keys,key5.rt,respT.keys,respT.corr,respT.rt,session,psychopyVersion,frameRate,expName,date,participant,
;;;;;;;;;;;;;;;space;165.636.611.222;;;;;;;;;;;;;;;;;;;1;3.0.3;60.075.104.943.475.200;ninosDelConv2;2019_May_09_0820;96;;,,,,,,,,,,,,,,,space,16.5636611222,,,,,,,,,,,,,,,,,,,001,3.0.3,60.075104943475225,ninosDelConv2,2019_May_09_0820,96,
;;;;;;;;;;;;;;;;;space;339.609.019.822;;;;;;;;;;;;;;;;;1;3.0.3;60.075.104.943.475.200;ninosDelConv2;2019_May_09_0820;96;;,,,,,,,,,,,,,,,,,space,33.9609019822,,,,,,,,,,,,,,,,,001,3.0.3,60.075104943475225,ninosDelConv2,2019_May_09_0820,96,
;;;;;;;;;;;;;;;;;;;space;147.972.200.918;;;;;;;;;;;;;;;1;3.0.3;60.075.104.943.475.200;ninosDelConv2;2019_May_09_0820;96;;,,,,,,,,,,,,,,,,,,,space,14.7972200918,,,,,,,,,,,,,,,001,3.0.3,60.075104943475225,ninosDelConv2,2019_May_09_0820,96,
;;;;;;;;;;;;;;;;;;;;;space;748.222.345.347;;;;;;;;;;;;;1;3.0.3;60.075.104.943.475.200;ninosDelConv2;2019_May_09_0820;96;;,,,,,,,,,,,,,,,,,,,,,space,7.48222345347,,,,,,,,,,,,,001,3.0.3,60.075104943475225,ninosDelConv2,2019_May_09_0820,96,
;;;;;;;;;;;;;;;;;;;;;;;right;559.969.948.325;;;;;;;;;;;1;3.0.3;60.075.104.943.475.200;ninosDelConv2;2019_May_09_0820;96;;,,,,,,,,,,,,,,,,,,,,,,,right,5.59969948325,,,,,,,,,,,001,3.0.3,60.075104943475225,ninosDelConv2,2019_May_09_0820,96,
;;;;;;;;;;;;;;;;;;;;;;;;;space;193.344.731.675;;;;;;;;;1;3.0.3;60.075.104.943.475.200;ninosDelConv2;2019_May_09_0820;96;;,,,,,,,,,,,,,,,,,,,,,,,,,space,1.93344731675,,,,,,,,,001,3.0.3,60.075104943475225,ninosDelConv2,2019_May_09_0820,96,
25;35;150;;;;;0;0;0;1;;;;;;;;;;;;;;;;;left;0;584.887.853.684;;;;;;1;3.0.3;60.075.104.943.475.200;ninosDelConv2;2019_May_09_0820;96;;25,35,150,,,,,0,0,0,1,,,,,,,,,,,,,,,,,left,0,5.84887853684,,,,,,001,3.0.3,60.075104943475225,ninosDelConv2,2019_May_09_0820,96,
10;19;89;;;;;0;1;1;2;;;;;;;;;;;;;;;;;left;0;486.598.783.964;;;;;;1;3.0.3;60.075.104.943.475.200;ninosDelConv2;2019_May_09_0820;96;;10,19,89,,,,,0,1,1,2,,,,,,,,,,,,,,,,,left,0,4.86598783964,,,,,,001,3.0.3,60.075104943475225,ninosDelConv2,2019_May_09_0820,96,
10;109;9;;;;;0;2;2;0;;;;;;;;;;;;;;;;;left;1;296.634.531.394;;;;;;1;3.0.3;60.075.104.943.475.200;ninosDelConv2;2019_May_09_0820;96;;10,109,9,,,,,0,2,2,0,,,,,,,,,,,,,,,,,left,1,2.96634531394,,,,,,001,3.0.3,60.075104943475225,ninosDelConv2,2019_May_09_0820,96,
;;;;;;;;;;;;;;;;;;;;;;;;;;;;;;g;106.984.284.301;;;;1;3.0.3;60.075.104.943.475.200;ninosDelConv2;2019_May_09_0820;96;;,,,,,,,,,,,,,,,,,,,,,,,,,,,,,,g,10.6984284301,,,,001,3.0.3,60.075104943475225,ninosDelConv2,2019_May_09_0820,96,
;;;5;0;36.0;61;;;;;0;0;0;46;;;;;;;;;;;;;;;;;;right;1;38.163.727.643;1;3.0.3;60.075.104.943.475.200;ninosDelConv2;2019_May_09_0820;96;;,,,5,0,36.0,61,,,,,0,0,0,46,,,,,,,,,,,,,,,,,,right,1,3.8163727643,001,3.0.3,60.075104943475225,ninosDelConv2,2019_May_09_0820,96,
;;;10;0;19.0;11;;;;;0;1;1;5;;;;;;;;;;;;;;;;;;left;0;40.163.921.956;1;3.0.3;60.075.104.943.475.200;ninosDelConv2;2019_May_09_0820;96;;,,,10,0,19.0,11,,,,,0,1,1,5,,,,,,,,,,,,,,,,,,left,0,4.0163921956,001,3.0.3,60.075104943475225,ninosDelConv2,2019_May_09_0820,96,
;;;10;0;111.0;30;;;;;0;2;2;13;;;;;;;;;;;;;;;;;;right;1;271.663.626.889;1;3.0.3;60.075.104.943.475.200;ninosDelConv2;2019_May_09_0820;96;;,,,10,0,111.0,30,,,,,0,2,2,13,,,,,,,,,,,,,,,,,,right,1,2.71663626889,001,3.0.3,60.075104943475225,ninosDelConv2,2019_May_09_0820,96,
;;;25;0;35.0;11;;;;;0;3;3;65;;;;;;;;;;;;;;;;;;left;1;638.196.262.205;1;3.0.3;60.075.104.943.475.200;ninosDelConv2;2019_May_09_0820;96;;,,,25,0,35.0,11,,,,,0,3,3,65,,,,,,,,,,,,,,,,,,left,1,6.38196262205,001,3.0.3,60.075104943475225,ninosDelConv2,2019_May_09_0820,96,
;;;10;0;150.0;5;;;;;0;4;4;4;;;;;;;;;;;;;;;;;;right;1;326.651.248.429;1;3.0.3;60.075.104.943.475.200;ninosDelConv2;2019_May_09_0820;96;;,,,10,0,150.0,5,,,,,0,4,4,4,,,,,,,,,,,,,,,,,,right,1,3.26651248429,001,3.0.3,60.075104943475225,ninosDelConv2,2019_May_09_0820,96,
;;;25;0;125.0;59;;;;;0;5;5;78;;;;;;;;;;;;;;;;;;left;1;404.986.850.452;1;3.0.3;60.075.104.943.475.200;ninosDelConv2;2019_May_09_0820;96;;,,,25,0,125.0,59,,,,,0,5,5,78,,,,,,,,,,,,,,,,,,left,1,4.04986850452,001,3.0.3,60.075104943475225,ninosDelConv2,2019_May_09_0820,96,
;;;10;0;151.0;11;;;;;0;6;6;9;;;;;;;;;;;;;;;;;;left;1;296.642.653.411;1;3.0.3;60.075.104.943.475.200;ninosDelConv2;2019_May_09_0820;96;;,,,10,0,151.0,11,,,,,0,6,6,9,,,,,,,,,,,,,,,,,,left,1,2.96642653411,001,3.0.3,60.075104943475225,ninosDelConv2,2019_May_09_0820,96,
;;;10;0;10.01;150;;;;;0;7;7;25;;;;;;;;;;;;;;;;;;right;0;583.335.560.933;1;3.0.3;60.075.104.943.475.200;ninosDelConv2;2019_May_09_0820;96;;,,,10,0,10.01,150,,,,,0,7,7,25,,,,,,,,,,,,,,,,,,right,0,5.83335560933,001,3.0.3,60.075104943475225,ninosDelConv2,2019_May_09_0820,96,
;;;10;0;20.0;59;;;;;0;8;8;15;;;;;;;;;;;;;;;;;;right;0;528.204.415.133;1;3.0.3;60.075.104.943.475.200;ninosDelConv2;2019_May_09_0820;96;;,,,10,0,20.0,59,,,,,0,8,8,15,,,,,,,,,,,,,,,,,,right,0,5.28204415133,001,3.0.3,60.075104943475225,ninosDelConv2,2019_May_09_0820,96,
;;;10;0;40.0;91;;;;;0;9;9;21;;;;;;;;;;;;;;;;;;left;0;339.944.358.636;1;3.0.3;60.075.104.943.475.200;ninosDelConv2;2019_May_09_0820;96;;,,,10,0,40.0,91,,,,,0,9,9,21,,,,,,,,,,,,,,,,,,left,0,3.39944358636,001,3.0.3,60.075104943475225,ninosDelConv2,2019_May_09_0820,96,
;;;5;0;151.0;4;;;;;0;10;10;34;;;;;;;;;;;;;;;;;;right;1;218.254.360.743;1;3.0.3;60.075.104.943.475.200;ninosDelConv2;2019_May_09_0820;96;;,,,5,0,151.0,4,,,,,0,10,10,34,,,,,,,,,,,,,,,,,,right,1,2.18254360743,001,3.0.3,60.075104943475225,ninosDelConv2,2019_May_09_0820,96,
;;;25;0;55.0;60;;;;;0;11;11;76;;;;;;;;;;;;;;;;;;right;1;79.488.746.305;1;3.0.3;60.075.104.943.475.200;ninosDelConv2;2019_May_09_0820;96;;,,,25,0,55.0,60,,,,,0,11,11,76,,,,,,,,,,,,,,,,,,right,1,7.9488746305,001,3.0.3,60.075104943475225,ninosDelConv2,2019_May_09_0820,96,
;;;5;0;56.0;29;;;;;0;12;12;42;;;;;;;;;;;;;;;;;;left;1;30.487.956.712;1;3.0.3;60.075.104.943.475.200;ninosDelConv2;2019_May_09_0820;96;;,,,5,0,56.0,29,,,,,0,12,12,42,,,,,,,,,,,,,,,,,,left,1,3.0487956712,001,3.0.3,60.075104943475225,ninosDelConv2,2019_May_09_0820,96,
;;;25;0;55.0;11;;;;;0;13;13;66;;;;;;;;;;;;;;;;;;left;1;196.658.075.089;1;3.0.3;60.075.104.943.475.200;ninosDelConv2;2019_May_09_0820;96;;,,,25,0,55.0,11,,,,,0,13,13,66,,,,,,,,,,,,,,,,,,left,1,1.96658075089,001,3.0.3,60.075104943475225,ninosDelConv2,2019_May_09_0820,96,
;;;5;0;56.0;60;;;;;0;14;14;47;;;;;;;;;;;;;;;;;;right;1;238.338.192.878;1;3.0.3;60.075.104.943.475.200;ninosDelConv2;2019_May_09_0820;96;;,,,5,0,56.0,60,,,,,0,14,14,47,,,,,,,,,,,,,,,,,,right,1,2.38338192878,001,3.0.3,60.075104943475225,ninosDelConv2,2019_May_09_0820,96,
;;;10;0;21.0;31;;;;;0;15;15;10;;;;;;;;;;;;;;;;;;left;0;19.666.650.556;1;3.0.3;60.075.104.943.475.200;ninosDelConv2;2019_May_09_0820;96;;,,,10,0,21.0,31,,,,,0,15,15,10,,,,,,,,,,,,,,,,,,left,0,1.9666650556,001,3.0.3,60.075104943475225,ninosDelConv2,2019_May_09_0820,96,
;;;5;0;104.0;5;;;;;0;16;16;33;;;;;;;;;;;;;;;;;;right;1;143.326.071.417;1;3.0.3;60.075.104.943.475.200;ninosDelConv2;2019_May_09_0820;96;;,,,5,0,104.0,5,,,,,0,16,16,33,,,,,,,,,,,,,,,,,,right,1,1.43326071417,001,3.0.3,60.075104943475225,ninosDelConv2,2019_May_09_0820,96,
;;;5;0;151.0;150;;;;;0;17;17;59;;;;;;;;;;;;;;;;;;right;1;389.974.842.127;1;3.0.3;60.075.104.943.475.200;ninosDelConv2;2019_May_09_0820;96;;,,,5,0,151.0,150,,,,,0,17,17,59,,,,,,,,,,,,,,,,,,right,1,3.89974842127,001,3.0.3,60.075104943475225,ninosDelConv2,2019_May_09_0820,96,
;;;10;0;20.0;90;;;;;0;18;18;20;;;;;;;;;;;;;;;;;;left;0;159.985.061.549;1;3.0.3;60.075.104.943.475.200;ninosDelConv2;2019_May_09_0820;96;;,,,10,0,20.0,90,,,,,0,18,18,20,,,,,,,,,,,,,,,,,,left,0,1.59985061549,001,3.0.3,60.075104943475225,ninosDelConv2,2019_May_09_0820,96,
;;;25;0;125.0;149;;;;;0;19;19;88;;;;;;;;;;;;;;;;;;right;1;513.251.368.934;1;3.0.3;60.075.104.943.475.200;ninosDelConv2;2019_May_09_0820;96;;,,,25,0,125.0,149,,,,,0,19,19,88,,,,,,,,,,,,,,,,,,right,1,5.13251368934,001,3.0.3,60.075104943475225,ninosDelConv2,2019_May_09_0820,96,
;;;5;0;15.0;91;;;;;0;20;20;50;;;;;;;;;;;;;;;;;;left;0;191.750.286.287;1;3.0.3;60.075.104.943.475.200;ninosDelConv2;2019_May_09_0820;96;;,,,5,0,15.0,91,,,,,0,20,20,50,,,,,,,,,,,,,,,,,,left,0,1.91750286287,001,3.0.3,60.075104943475225,ninosDelConv2,2019_May_09_0820,96,
;;;10;0;39.0;150;;;;;0;21;21;26;;;;;;;;;;;;;;;;;;right;0;211.723.648.012;1;3.0.3;60.075.104.943.475.200;ninosDelConv2;2019_May_09_0820;96;;,,,10,0,39.0,150,,,,,0,21,21,26,,,,,,,,,,,,,,,,,,right,0,2.11723648012,001,3.0.3,60.075104943475225,ninosDelConv2,2019_May_09_0820,96,
;;;5;0;104.0;10;;;;;0;22;22;38;;;;;;;;;;;;;;;;;;right;1;160.038.214.875;1;3.0.3;60.075.104.943.475.200;ninosDelConv2;2019_May_09_0820;96;;,,,5,0,104.0,10,,,,,0,22,22,38,,,,,,,,,,,,,,,,,,right,1,1.60038214875,001,3.0.3,60.075104943475225,ninosDelConv2,2019_May_09_0820,96,
;;;10;0;110.0;60;;;;;0;23;23;18;;;;;;;;;;;;;;;;;;left;1;209.873.562.958;1;3.0.3;60.075.104.943.475.200;ninosDelConv2;2019_May_09_0820;96;;,,,10,0,110.0,60,,,,,0,23,23,18,,,,,,,,,,,,,,,,,,left,1,2.09873562958,001,3.0.3,60.075104943475225,ninosDelConv2,2019_May_09_0820,96,
;;;5;0;150.0;30;;;;;0;24;24;44;;;;;;;;;;;;;;;;;;left;1;144.978.810.614;1;3.0.3;60.075.104.943.475.200;ninosDelConv2;2019_May_09_0820;96;;,,,5,0,150.0,30,,,,,0,24,24,44,,,,,,,,,,,,,,,,,,left,1,1.44978810614,001,3.0.3,60.075104943475225,ninosDelConv2,2019_May_09_0820,96,
;;;25;0;55.0;151;;;;;0;25;25;86;;;;;;;;;;;;;;;;;;left;0;198.354.200.553;1;3.0.3;60.075.104.943.475.200;ninosDelConv2;2019_May_09_0820;96;;,,,25,0,55.0,151,,,,,0,25,25,86,,,,,,,,,,,,,,,,,,left,0,1.98354200553,001,3.0.3,60.075104943475225,ninosDelConv2,2019_May_09_0820,96,
;;;25;0;35.0;5;;;;;0;26;26;60;;;;;;;;;;;;;;;;;;left;1;436.688.178.172;1;3.0.3;60.075.104.943.475.200;ninosDelConv2;2019_May_09_0820;96;;,,,25,0,35.0,5,,,,,0,26,26,60,,,,,,,,,,,,,,,,,,left,1,4.36688178172,001,3.0.3,60.075104943475225,ninosDelConv2,2019_May_09_0820,96,
;;;25;0;125.0;9;;;;;0;27;27;68;;;;;;;;;;;;;;;;;;left;1;115.007.690.294;1;3.0.3;60.075.104.943.475.200;ninosDelConv2;2019_May_09_0820;96;;,,,25,0,125.0,9,,,,,0,27,27,68,,,,,,,,,,,,,,,,,,left,1,1.15007690294,001,3.0.3,60.075104943475225,ninosDelConv2,2019_May_09_0820,96,
;;;25;0;125.0;4;;;;;0;28;28;63;;;;;;;;;;;;;;;;;;right;1;181.685.340.591;1;3.0.3;60.075.104.943.475.200;ninosDelConv2;2019_May_09_0820;96;;,,,25,0,125.0,4,,,,,0,28,28,63,,,,,,,,,,,,,,,,,,right,1,1.81685340591,001,3.0.3,60.075104943475225,ninosDelConv2,2019_May_09_0820,96,
;;;25;0;150.0;150;;;;;0;29;29;89;;;;;;;;;;;;;;;;;;right;1;824.906.236.306;1;3.0.3;60.075.104.943.475.200;ninosDelConv2;2019_May_09_0820;96;;,,,25,0,150.0,150,,,,,0,29,29,89,,,,,,,,,,,,,,,,,,right,1,8.24906236306,001,3.0.3,60.075104943475225,ninosDelConv2,2019_May_09_0820,96,
;;;10;0;110.0;90;;;;;0;30;30;23;;;;;;;;;;;;;;;;;;right;1;418.283.147.831;1;3.0.3;60.075.104.943.475.200;ninosDelConv2;2019_May_09_0820;96;;,,,10,0,110.0,90,,,,,0,30,30,23,,,,,,,,,,,,,,,,,,right,1,4.18283147831,001,3.0.3,60.075104943475225,ninosDelConv2,2019_May_09_0820,96,
;;;5;0;16.0;4;;;;;0;31;31;30;;;;;;;;;;;;;;;;;;right;1;148.982.674.279;1;3.0.3;60.075.104.943.475.200;ninosDelConv2;2019_May_09_0820;96;;,,,5,0,16.0,4,,,,,0,31,31,30,,,,,,,,,,,,,,,,,,right,1,14.8982674279,001,3.0.3,60.075104943475225,ninosDelConv2,2019_May_09_0820,96,
;;;25;0;150.0;4;;;;;0;32;32;64;;;;;;;;;;;;;;;;;;right;1;181.678.503.612;1;3.0.3;60.075.104.943.475.200;ninosDelConv2;2019_May_09_0820;96;;,,,25,0,150.0,4,,,,,0,32,32,64,,,,,,,,,,,,,,,,,,right,1,1.81678503612,001,3.0.3,60.075104943475225,ninosDelConv2,2019_May_09_0820,96,
;;;5;0;105.0;60;;;;;0;33;33;48;;;;;;;;;;;;;;;;;;left;1;215.016.634.809;1;3.0.3;60.075.104.943.475.200;ninosDelConv2;2019_May_09_0820;96;;,,,5,0,105.0,60,,,,,0,33,33,48,,,,,,,,,,,,,,,,,,left,1,2.15016634809,001,3.0.3,60.075104943475225,ninosDelConv2,2019_May_09_0820,96,
;;;10;0;60.0;60;;;;;0;34;34;17;;;;;;;;;;;;;;;;;;left;1;411.685.967.725;1;3.0.3;60.075.104.943.475.200;ninosDelConv2;2019_May_09_0820;96;;,,,10,0,60.0,60,,,,,0,34,34,17,,,,,,,,,,,,,,,,,,left,1,4.11685967725,001,3.0.3,60.075104943475225,ninosDelConv2,2019_May_09_0820,96,
;;;5;0;104.0;90;;;;;0;35;35;53;;;;;;;;;;;;;;;;;;right;1;204.992.967.704;1;3.0.3;60.075.104.943.475.200;ninosDelConv2;2019_May_09_0820;96;;,,,5,0,104.0,90,,,,,0,35,35,53,,,,,,,,,,,,,,,,,,right,1,2.04992967704,001,3.0.3,60.075104943475225,ninosDelConv2,2019_May_09_0820,96,
;;;5;0;56.0;9;;;;;0;36;36;37;;;;;;;;;;;;;;;;;;right;1;391.634.675.302;1;3.0.3;60.075.104.943.475.200;ninosDelConv2;2019_May_09_0820;96;;,,,5,0,56.0,9,,,,,0,36,36,37,,,,,,,,,,,,,,,,,,right,1,3.91634675302,001,3.0.3,60.075104943475225,ninosDelConv2,2019_May_09_0820,96,
;;;10;0;60.0;29;;;;;0;37;37;12;;;;;;;;;;;;;;;;;;right;1;130.041.597.364;1;3.0.3;60.075.104.943.475.200;ninosDelConv2;2019_May_09_0820;96;;,,,10,0,60.0,29,,,,,0,37,37,12,,,,,,,,,,,,,,,,,,right,1,1.30041597364,001,3.0.3,60.075104943475225,ninosDelConv2,2019_May_09_0820,96,
;;;25;0;150.0;9;;;;;0;38;38;69;;;;;;;;;;;;;;;;;;left;1;126.707.331.883;1;3.0.3;60.075.104.943.475.200;ninosDelConv2;2019_May_09_0820;96;;,,,25,0,150.0,9,,,,,0,38,38,69,,,,,,,,,,,,,,,,,,left,1,1.26707331883,001,3.0.3,60.075104943475225,ninosDelConv2,2019_May_09_0820,96,
;;;5;0;15.0;61;;;;;0;39;39;45;;;;;;;;;;;;;;;;;;left;0;236.605.106.806;1;3.0.3;60.075.104.943.475.200;ninosDelConv2;2019_May_09_0820;96;;,,,5,0,15.0,61,,,,,0,39,39,45,,,,,,,,,,,,,,,,,,left,0,2.36605106806,001,3.0.3,60.075104943475225,ninosDelConv2,2019_May_09_0820,96,
;;;10;0;40.0;10;;;;;0;40;40;6;;;;;;;;;;;;;;;;;;left;1;261.747.757.206;1;3.0.3;60.075.104.943.475.200;ninosDelConv2;2019_May_09_0820;96;;,,,10,0,40.0,10,,,,,0,40,40,6,,,,,,,,,,,,,,,,,,left,1,2.61747757206,001,3.0.3,60.075104943475225,ninosDelConv2,2019_May_09_0820,96,
;;;5;0;149.0;59;;;;;0;41;41;49;;;;;;;;;;;;;;;;;;left;1;158.320.756.117;1;3.0.3;60.075.104.943.475.200;ninosDelConv2;2019_May_09_0820;96;;,,,5,0,149.0,59,,,,,0,41,41,49,,,,,,,,,,,,,,,,,,left,1,1.58320756117,001,3.0.3,60.075104943475225,ninosDelConv2,2019_May_09_0820,96,
;;;10;0;111.0;10;;;;;0;42;42;8;;;;;;;;;;;;;;;;;;right;1;176.688.414.626;1;3.0.3;60.075.104.943.475.200;ninosDelConv2;2019_May_09_0820;96;;,,,10,0,111.0,10,,,,,0,42,42,8,,,,,,,,,,,,,,,,,,right,1,1.76688414626,001,3.0.3,60.075104943475225,ninosDelConv2,2019_May_09_0820,96,
;;;25;0;75.0;151;;;;;0;43;43;87;;;;;;;;;;;;;;;;;;right;1;105.485.494.388;1;3.0.3;60.075.104.943.475.200;ninosDelConv2;2019_May_09_0820;96;;,,,25,0,75.0,151,,,,,0,43,43,87,,,,,,,,,,,,,,,,,,right,1,10.5485494388,001,3.0.3,60.075104943475225,ninosDelConv2,2019_May_09_0820,96,
;;;5;0;35.0;150;;;;;0;44;44;56;;;;;;;;;;;;;;;;;;left;0;2.199.998.355;1;3.0.3;60.075.104.943.475.200;ninosDelConv2;2019_May_09_0820;96;;,,,5,0,35.0,150,,,,,0,44,44,56,,,,,,,,,,,,,,,,,,left,0,2.199998355,001,3.0.3,60.075104943475225,ninosDelConv2,2019_May_09_0820,96,
;;;10;0;149.0;61;;;;;0;45;45;19;;;;;;;;;;;;;;;;;;right;1;136.756.187.677;1;3.0.3;60.075.104.943.475.200;ninosDelConv2;2019_May_09_0820;96;;,,,10,0,149.0,61,,,,,0,45,45,19,,,,,,,,,,,,,,,,,,right,1,1.36756187677,001,3.0.3,60.075104943475225,ninosDelConv2,2019_May_09_0820,96,
;;;5;0;106.0;152;;;;;0;46;46;58;;;;;;;;;;;;;;;;;;left;1;25.655.420.511;1;3.0.3;60.075.104.943.475.200;ninosDelConv2;2019_May_09_0820;96;;,,,5,0,106.0,152,,,,,0,46,46,58,,,,,,,,,,,,,,,,,,left,1,2.5655420511,001,3.0.3,60.075104943475225,ninosDelConv2,2019_May_09_0820,96,
;;;10;0;61.0;4;;;;;0;47;47;2;;;;;;;;;;;;;;;;;;left;1;183.600.916.248;1;3.0.3;60.075.104.943.475.200;ninosDelConv2;2019_May_09_0820;96;;,,,10,0,61.0,4,,,,,0,47,47,2,,,,,,,,,,,,,,,,,,left,1,1.83600916248,001,3.0.3,60.075104943475225,ninosDelConv2,2019_May_09_0820,96,
;;;10;0;61.0;150;;;;;0;48;48;27;;;;;;;;;;;;;;;;;;right;1;663.284.679.689;1;3.0.3;60.075.104.943.475.200;ninosDelConv2;2019_May_09_0820;96;;,,,10,0,61.0,150,,,,,0,48,48,27,,,,,,,,,,,,,,,,,,right,1,6.63284679689,001,3.0.3,60.075104943475225,ninosDelConv2,2019_May_09_0820,96,
;;;25;0;75.0;90;;;;;0;49;49;82;;;;;;;;;;;;;;;;;;left;1;441.672.406.951;1;3.0.3;60.075.104.943.475.200;ninosDelConv2;2019_May_09_0820;96;;,,,25,0,75.0,90,,,,,0,49,49,82,,,,,,,,,,,,,,,,,,left,1,4.41672406951,001,3.0.3,60.075104943475225,ninosDelConv2,2019_May_09_0820,96,
;;;5;0;56.0;89;;;;;0;50;50;52;;;;;;;;;;;;;;;;;;left;1;534.841.383.109;1;3.0.3;60.075.104.943.475.200;ninosDelConv2;2019_May_09_0820;96;;,,,5,0,56.0,89,,,,,0,50,50,52,,,,,,,,,,,,,,,,,,left,1,5.34841383109,001,3.0.3,60.075104943475225,ninosDelConv2,2019_May_09_0820,96,
;;;25;0;55.0;30;;;;;0;51;51;71;;;;;;;;;;;;;;;;;;left;1;651.530.908.095;1;3.0.3;60.075.104.943.475.200;ninosDelConv2;2019_May_09_0820;96;;,,,25,0,55.0,30,,,,,0,51,51,71,,,,,,,,,,,,,,,,,,left,1,6.51530908095,001,3.0.3,60.075104943475225,ninosDelConv2,2019_May_09_0820,96,
;;;25;0;55.0;90;;;;;0;52;52;81;;;;;;;;;;;;;;;;;;left;0;188.346.571.987;1;3.0.3;60.075.104.943.475.200;ninosDelConv2;2019_May_09_0820;96;;,,,25,0,55.0,90,,,,,0,52,52,81,,,,,,,,,,,,,,,,,,left,0,1.88346571987,001,3.0.3,60.075104943475225,ninosDelConv2,2019_May_09_0820,96,
;;;5;0;36.0;9;;;;;0;53;53;36;;;;;;;;;;;;;;;;;;right;1;193.384.159.682;1;3.0.3;60.075.104.943.475.200;ninosDelConv2;2019_May_09_0820;96;;,,,5,0,36.0,9,,,,,0,53,53,36,,,,,,,,,,,,,,,,,,right,1,1.93384159682,001,3.0.3,60.075104943475225,ninosDelConv2,2019_May_09_0820,96,
;;;5;0;14.0;31;;;;;0;54;54;40;;;;;;;;;;;;;;;;;;right;0;324.881.818.658;1;3.0.3;60.075.104.943.475.200;ninosDelConv2;2019_May_09_0820;96;;,,,5,0,14.0,31,,,,,0,54,54,40,,,,,,,,,,,,,,,,,,right,0,3.24881818658,001,3.0.3,60.075104943475225,ninosDelConv2,2019_May_09_0820,96,
;;;25;0;75.0;59;;;;;0;55;55;77;;;;;;;;;;;;;;;;;;left;1;161.658.619.996;1;3.0.3;60.075.104.943.475.200;ninosDelConv2;2019_May_09_0820;96;;,,,25,0,75.0,59,,,,,0,55,55,77,,,,,,,,,,,,,,,,,,left,1,1.61658619996,001,3.0.3,60.075104943475225,ninosDelConv2,2019_May_09_0820,96,
;;;25;0;35.0;90;;;;;0;56;56;80;;;;;;;;;;;;;;;;;;left;0;259.910.831.973;1;3.0.3;60.075.104.943.475.200;ninosDelConv2;2019_May_09_0820;96;;,,,25,0,35.0,90,,,,,0,56,56,80,,,,,,,,,,,,,,,,,,left,0,2.59910831973,001,3.0.3,60.075104943475225,ninosDelConv2,2019_May_09_0820,96,
;;;5;0;150.0;90;;;;;0;57;57;54;;;;;;;;;;;;;;;;;;left;1;339.943.844.592;1;3.0.3;60.075.104.943.475.200;ninosDelConv2;2019_May_09_0820;96;;,,,5,0,150.0,90,,,,,0,57,57,54,,,,,,,,,,,,,,,,,,left,1,3.39943844592,001,3.0.3,60.075104943475225,ninosDelConv2,2019_May_09_0820,96,
;;;10;0;149.0;89;;;;;0;58;58;24;;;;;;;;;;;;;;;;;;right;1;259.966.504.155;1;3.0.3;60.075.104.943.475.200;ninosDelConv2;2019_May_09_0820;96;;,,,10,0,149.0,89,,,,,0,58,58,24,,,,,,,,,,,,,,,,,,right,1,2.59966504155,001,3.0.3,60.075104943475225,ninosDelConv2,2019_May_09_0820,96,
;;;25;0;125.0;89;;;;;0;59;59;83;;;;;;;;;;;;;;;;;;left;1;176.554.914.471;1;3.0.3;60.075.104.943.475.200;ninosDelConv2;2019_May_09_0820;96;;,,,25,0,125.0,89,,,,,0,59,59,83,,,,,,,,,,,,,,,,,,left,1,1.76554914471,001,3.0.3,60.075104943475225,ninosDelConv2,2019_May_09_0820,96,
;;;10;0;151.0;151;;;;;0;60;60;29;;;;;;;;;;;;;;;;;;right;1;301.639.219.513;1;3.0.3;60.075.104.943.475.200;ninosDelConv2;2019_May_09_0820;96;;,,,10,0,151.0,151,,,,,0,60,60,29,,,,,,,,,,,,,,,,,,right,1,3.01639219513,001,3.0.3,60.075104943475225,ninosDelConv2,2019_May_09_0820,96,
;;;25;0;75.0;31;;;;;0;61;61;72;;;;;;;;;;;;;;;;;;left;1;248.413.933.767;1;3.0.3;60.075.104.943.475.200;ninosDelConv2;2019_May_09_0820;96;;,,,25,0,75.0,31,,,,,0,61,61,72,,,,,,,,,,,,,,,,,,left,1,2.48413933767,001,3.0.3,60.075104943475225,ninosDelConv2,2019_May_09_0820,96,
;;;25;0;150.0;61;;;;;0;62;62;79;;;;;;;;;;;;;;;;;;right;1;166.660.480.853;1;3.0.3;60.075.104.943.475.200;ninosDelConv2;2019_May_09_0820;96;;,,,25,0,150.0,61,,,,,0,62,62,79,,,,,,,,,,,,,,,,,,right,1,1.66660480853,001,3.0.3,60.075104943475225,ninosDelConv2,2019_May_09_0820,96,
;;;5;0;55.0;151;;;;;0;63;63;57;;;;;;;;;;;;;;;;;;left;1;278.236.440.755;1;3.0.3;60.075.104.943.475.200;ninosDelConv2;2019_May_09_0820;96;;,,,5,0,55.0,151,,,,,0,63,63,57,,,,,,,,,,,,,,,,,,left,1,2.78236440755,001,3.0.3,60.075104943475225,ninosDelConv2,2019_May_09_0820,96,
;;;10;0;61.0;89;;;;;0;64;64;22;;;;;;;;;;;;;;;;;;left;1;238.370.424.137;1;3.0.3;60.075.104.943.475.200;ninosDelConv2;2019_May_09_0820;96;;,,,10,0,61.0,89,,,,,0,64,64,22,,,,,,,,,,,,,,,,,,left,1,2.38370424137,001,3.0.3,60.075104943475225,ninosDelConv2,2019_May_09_0820,96,
;;;10;0;109.0;149;;;;;0;65;65;28;;;;;;;;;;;;;;;;;;right;1;280.017.590.988;1;3.0.3;60.075.104.943.475.200;ninosDelConv2;2019_May_09_0820;96;;,,,10,0,109.0,149,,,,,0,65,65,28,,,,,,,,,,,,,,,,,,right,1,2.80017590988,001,3.0.3,60.075104943475225,ninosDelConv2,2019_May_09_0820,96,
;;;25;0;125.0;31;;;;;0;66;66;73;;;;;;;;;;;;;;;;;;right;1;124.932.658.719;1;3.0.3;60.075.104.943.475.200;ninosDelConv2;2019_May_09_0820;96;;,,,25,0,125.0,31,,,,,0,66,66,73,,,,,,,,,,,,,,,,,,right,1,1.24932658719,001,3.0.3,60.075104943475225,ninosDelConv2,2019_May_09_0820,96,
;;;25;0;150.0;29;;;;;0;67;67;74;;;;;;;;;;;;;;;;;;left;1;123.227.383.103;1;3.0.3;60.075.104.943.475.200;ninosDelConv2;2019_May_09_0820;96;;,,,25,0,150.0,29,,,,,0,67,67,74,,,,,,,,,,,,,,,,,,left,1,1.23227383103,001,3.0.3,60.075104943475225,ninosDelConv2,2019_May_09_0820,96,
;;;10;0;109.0;5;;;;;0;68;68;3;;;;;;;;;;;;;;;;;;right;1;160.109.308.735;1;3.0.3;60.075.104.943.475.200;ninosDelConv2;2019_May_09_0820;96;;,,,10,0,109.0,5,,,,,0,68,68,3,,,,,,,,,,,,,,,,,,right,1,1.60109308735,001,3.0.3,60.075104943475225,ninosDelConv2,2019_May_09_0820,96,
;;;25;0;35.0;60;;;;;0;69;69;75;;;;;;;;;;;;;;;;;;right;0;215.019.307.937;1;3.0.3;60.075.104.943.475.200;ninosDelConv2;2019_May_09_0820;96;;,,,25,0,35.0,60,,,,,0,69,69,75,,,,,,,,,,,,,,,,,,right,0,2.15019307937,001,3.0.3,60.075104943475225,ninosDelConv2,2019_May_09_0820,96,
;;;5;0;54.0;5;;;;;0;70;70;32;;;;;;;;;;;;;;;;;;right;1;326.559.438.137;1;3.0.3;60.075.104.943.475.200;ninosDelConv2;2019_May_09_0820;96;;,,,5,0,54.0,5,,,,,0,70,70,32,,,,,,,,,,,,,,,,,,right,1,3.26559438137,001,3.0.3,60.075104943475225,ninosDelConv2,2019_May_09_0820,96,
;;;25;0;75.0;5;;;;;0;71;71;62;;;;;;;;;;;;;;;;;;right;1;101.819.550.106;1;3.0.3;60.075.104.943.475.200;ninosDelConv2;2019_May_09_0820;96;;,,,25,0,75.0,5,,,,,0,71,71,62,,,,,,,,,,,,,,,,,,right,1,1.01819550106,001,3.0.3,60.075104943475225,ninosDelConv2,2019_May_09_0820,96,
;;;5;0;14.0;149;;;;;0;72;72;55;;;;;;;;;;;;;;;;;;right;0;194.980.352.838;1;3.0.3;60.075.104.943.475.200;ninosDelConv2;2019_May_09_0820;96;;,,,5,0,14.0,149,,,,,0,72,72,55,,,,,,,,,,,,,,,,,,right,0,1.94980352838,001,3.0.3,60.075104943475225,ninosDelConv2,2019_May_09_0820,96,
;;;10;0;39.0;29;;;;;0;73;73;11;;;;;;;;;;;;;;;;;;right;1;490.066.138.376;1;3.0.3;60.075.104.943.475.200;ninosDelConv2;2019_May_09_0820;96;;,,,10,0,39.0,29,,,,,0,73,73,11,,,,,,,,,,,,,,,,,,right,1,4.90066138376,001,3.0.3,60.075104943475225,ninosDelConv2,2019_May_09_0820,96,
;;;25;0;75.0;10;;;;;0;74;74;67;;;;;;;;;;;;;;;;;;right;1;36.155.591.174;1;3.0.3;60.075.104.943.475.200;ninosDelConv2;2019_May_09_0820;96;;,,,25,0,75.0,10,,,,,0,74,74,67,,,,,,,,,,,,,,,,,,right,1,3.6155591174,001,3.0.3,60.075104943475225,ninosDelConv2,2019_May_09_0820,96,
;;;10;0;59.0;9;;;;;0;75;75;7;;;;;;;;;;;;;;;;;;right;1;208.350.314.293;1;3.0.3;60.075.104.943.475.200;ninosDelConv2;2019_May_09_0820;96;;,,,10,0,59.0,9,,,,,0,75,75,7,,,,,,,,,,,,,,,,,,right,1,2.08350314293,001,3.0.3,60.075104943475225,ninosDelConv2,2019_May_09_0820,96,
;;;5;0;35.0;6;;;;;0;76;76;31;;;;;;;;;;;;;;;;;;right;1;161.489.547.184;1;3.0.3;60.075.104.943.475.200;ninosDelConv2;2019_May_09_0820;96;;,,,5,0,35.0,6,,,,,0,76,76,31,,,,,,,,,,,,,,,,,,right,1,1.61489547184,001,3.0.3,60.075104943475225,ninosDelConv2,2019_May_09_0820,96,
;;;5;0;35.0;89;;;;;0;77;77;51;;;;;;;;;;;;;;;;;;left;0;904.803.332.733;1;3.0.3;60.075.104.943.475.200;ninosDelConv2;2019_May_09_0820;96;;,,,5,0,35.0,89,,,,,0,77,77,51,,,,,,,,,,,,,,,,,,left,0,9.04803332733,001,3.0.3,60.075104943475225,ninosDelConv2,2019_May_09_0820,96,
;;;5;0;15.0;11;;;;;0;78;78;35;;;;;;;;;;;;;;;;;;left;1;618.233.695.719;1;3.0.3;60.075.104.943.475.200;ninosDelConv2;2019_May_09_0820;96;;,,,5,0,15.0,11,,,,,0,78,78,35,,,,,,,,,,,,,,,,,,left,1,6.18233695719,001,3.0.3,60.075104943475225,ninosDelConv2,2019_May_09_0820,96,
;;;10;0;39.0;59;;;;;0;79;79;16;;;;;;;;;;;;;;;;;;right;1;323.263.469.804;1;3.0.3;60.075.104.943.475.200;ninosDelConv2;2019_May_09_0820;96;;,,,10,0,39.0,59,,,,,0,79,79,16,,,,,,,,,,,,,,,,,,right,1,3.23263469804,001,3.0.3,60.075104943475225,ninosDelConv2,2019_May_09_0820,96,
;;;5;0;149.0;10;;;;;0;80;80;39;;;;;;;;;;;;;;;;;;right;1;158.344.145.631;1;3.0.3;60.075.104.943.475.200;ninosDelConv2;2019_May_09_0820;96;;,,,5,0,149.0,10,,,,,0,80,80,39,,,,,,,,,,,,,,,,,,right,1,1.58344145631,001,3.0.3,60.075104943475225,ninosDelConv2,2019_May_09_0820,96,
;;;25;0;35.0;150;;;;;0;81;81;85;;;;;;;;;;;;;;;;;;left;0;264.964.663.843;1;3.0.3;60.075.104.943.475.200;ninosDelConv2;2019_May_09_0820;96;;,,,25,0,35.0,150,,,,,0,81,81,85,,,,,,,,,,,,,,,,,,left,0,2.64964663843,001,3.0.3,60.075104943475225,ninosDelConv2,2019_May_09_0820,96,
;;;10;0;39.0;6;;;;;0;82;82;1;;;;;;;;;;;;;;;;;;right;1;518.346.890.714;1;3.0.3;60.075.104.943.475.200;ninosDelConv2;2019_May_09_0820;96;;,,,10,0,39.0,6,,,,,0,82,82,1,,,,,,,,,,,,,,,,,,right,1,5.18346890714,001,3.0.3,60.075104943475225,ninosDelConv2,2019_May_09_0820,96,
;;;5;0;35.0;31;;;;;0;83;83;41;;;;;;;;;;;;;;;;;;left;1;201.812.507.585;1;3.0.3;60.075.104.943.475.200;ninosDelConv2;2019_May_09_0820;96;;,,,5,0,35.0,31,,,,,0,83,83,41,,,,,,,,,,,,,,,,,,left,1,2.01812507585,001,3.0.3,60.075104943475225,ninosDelConv2,2019_May_09_0820,96,
;;;25;0;150.0;89;;;;;0;84;84;84;;;;;;;;;;;;;;;;;;right;1;124.953.220.971;1;3.0.3;60.075.104.943.475.200;ninosDelConv2;2019_May_09_0820;96;;,,,25,0,150.0,89,,,,,0,84,84,84,,,,,,,,,,,,,,,,,,right,1,1.24953220971,001,3.0.3,60.075104943475225,ninosDelConv2,2019_May_09_0820,96,
;;;25;0;55.0;6;;;;;0;85;85;61;;;;;;;;;;;;;;;;;;right;1;0.799966689199;1;3.0.3;60.075.104.943.475.200;ninosDelConv2;2019_May_09_0820;96;;,,,25,0,55.0,6,,,,,0,85,85,61,,,,,,,,,,,,,,,,,,right,1,0.799966689199,001,3.0.3,60.075104943475225,ninosDelConv2,2019_May_09_0820,96,
;;;10;0;150.0;30;;;;;0;86;86;14;;;;;;;;;;;;;;;;;;left;1;130.098.349.042;1;3.0.3;60.075.104.943.475.200;ninosDelConv2;2019_May_09_0820;96;;,,,10,0,150.0,30,,,,,0,86,86,14,,,,,,,,,,,,,,,,,,left,1,1.30098349042,001,3.0.3,60.075104943475225,ninosDelConv2,2019_May_09_0820,96,
;;;25;0;35.0;30;;;;;0;87;87;70;;;;;;;;;;;;;;;;;;right;0;594.893.940.119;1;3.0.3;60.075.104.943.475.200;ninosDelConv2;2019_May_09_0820;96;;,,,25,0,35.0,30,,,,,0,87,87,70,,,,,,,,,,,,,,,,,,right,0,5.94893940119,001,3.0.3,60.075104943475225,ninosDelConv2,2019_May_09_0820,96,
;;;5;0;106.0;29;;;;;0;88;88;43;;;;;;;;;;;;;;;;;;right;1;133.352.319.105;1;3.0.3;60.075.104.943.475.200;ninosDelConv2;2019_May_09_0820;96;;,,,5,0,106.0,29,,,,,0,88,88,43,,,,,,,,,,,,,,,,,,right,1,1.33352319105,001,3.0.3,60.075104943475225,ninosDelConv2,2019_May_09_0820,96,
;;;10;0;20.0;5;;;;;0;89;89;0;;;;;;;;;;;;;;;;;;left;1;336.557.967.961;1;3.0.3;60.075.104.943.475.200;ninosDelConv2;2019_May_09_0820;96;;,,,10,0,20.0,5,,,,,0,89,89,0,,,,,,,,,,,,,,,,,,left,1,3.36557967961,001,3.0.3,60.075104943475225,ninosDelConv2,2019_May_09_0820,96,
