key1.keys,key1.rt,key2.keys,key2.rt,key2_2.keys,key2_2.rt,key2_3.keys,key2_3.rt,key3.keys,key3.rt,key4.keys,key4.rt,respP.keys,respP.corr,respP.rt,Practice.thisRepN,Practice.thisTrialN,Practice.thisN,Practice.thisIndex,Practice.ran,ssAmount,llAmount,llDelay,session,participant,date,expName,psychopyVersion,OS,frameRate,key5.keys,key5.rt,respT.keys,respT.corr,trials.thisRepN,trials.thisTrialN,trials.thisN,trials.thisIndex,trials.ran,ss_Amt,ss_Delay,ll_Amt,ll_Delay,respT.rt
space,4.1037,space,0.4874,space,3.0348,space,0.6053,right,13.3787,space,3.0283,left,1,11.3308,0,0,0,0,1,10000,109000,9,002,F453,2022-09-07_08h18.32.593,tareaTDv3,2020.2.5,Win32,60,,,,,,,,,,,,,,
,,,,,,,,,,,,,0,,0,1,1,1,1,25000,35000,150,002,F453,2022-09-07_08h18.32.593,tareaTDv3,2020.2.5,Win32,60,,,,,,,,,,,,,,
,,,,,,,,,,,,,0,,0,2,2,2,1,10000,19000,89,002,F453,2022-09-07_08h18.32.593,tareaTDv3,2020.2.5,Win32,60,,,,,,,,,,,,,,
,,,,,,,,,,,,,,,,,,,,,,,002,F453,2022-09-07_08h18.32.593,tareaTDv3,2020.2.5,Win32,60,g,4.5308,,0,0,0,0,56,1,5000,0,35000,150,
,,,,,,,,,,,,,,,,,,,,,,,002,F453,2022-09-07_08h18.32.593,tareaTDv3,2020.2.5,Win32,60,,,right,1,0,1,1,82,1,25000,0,75000,90,4.1573
,,,,,,,,,,,,,,,,,,,,,,,002,F453,2022-09-07_08h18.32.593,tareaTDv3,2020.2.5,Win32,60,,,right,1,0,2,2,73,1,25000,0,125000,31,7.0955
,,,,,,,,,,,,,,,,,,,,,,,002,F453,2022-09-07_08h18.32.593,tareaTDv3,2020.2.5,Win32,60,,,right,1,0,3,3,12,1,10000,0,60000,29,4.6689
,,,,,,,,,,,,,,,,,,,,,,,002,F453,2022-09-07_08h18.32.593,tareaTDv3,2020.2.5,Win32,60,,,right,1,0,4,4,54,1,5000,0,150000,90,1.3766
,,,,,,,,,,,,,,,,,,,,,,,002,F453,2022-09-07_08h18.32.593,tareaTDv3,2020.2.5,Win32,60,,,right,1,0,5,5,13,1,10000,0,111000,30,6.0872
,,,,,,,,,,,,,,,,,,,,,,,002,F453,2022-09-07_08h18.32.593,tareaTDv3,2020.2.5,Win32,60,,,right,0,0,6,6,67,1,25000,0,75000,10,2.851
,,,,,,,,,,,,,,,,,,,,,,,002,F453,2022-09-07_08h18.32.593,tareaTDv3,2020.2.5,Win32,60,,,left,1,0,7,7,89,1,25000,0,150000,150,1.5872
,,,,,,,,,,,,,,,,,,,,,,,002,F453,2022-09-07_08h18.32.593,tareaTDv3,2020.2.5,Win32,60,,,left,0,0,8,8,66,1,25000,0,55000,11,5.0561
,,,,,,,,,,,,,,,,,,,,,,,002,F453,2022-09-07_08h18.32.593,tareaTDv3,2020.2.5,Win32,60,,,right,0,0,9,9,26,1,10000,0,39000,150,2.3757
,,,,,,,,,,,,,,,,,,,,,,,002,F453,2022-09-07_08h18.32.593,tareaTDv3,2020.2.5,Win32,60,,,left,1,0,10,10,29,1,10000,0,151000,151,1.2907
,,,,,,,,,,,,,,,,,,,,,,,002,F453,2022-09-07_08h18.32.593,tareaTDv3,2020.2.5,Win32,60,,,left,1,0,11,11,17,1,10000,0,60000,60,4.4492
,,,,,,,,,,,,,,,,,,,,,,,002,F453,2022-09-07_08h18.32.593,tareaTDv3,2020.2.5,Win32,60,,,right,1,0,12,12,42,1,5000,0,56000,29,2.0412
,,,,,,,,,,,,,,,,,,,,,,,002,F453,2022-09-07_08h18.32.593,tareaTDv3,2020.2.5,Win32,60,,,right,0,0,13,13,35,1,5000,0,15000,11,2.0929
,,,,,,,,,,,,,,,,,,,,,,,002,F453,2022-09-07_08h18.32.593,tareaTDv3,2020.2.5,Win32,60,,,left,1,0,14,14,32,1,5000,0,54000,5,1.9938
,,,,,,,,,,,,,,,,,,,,,,,002,F453,2022-09-07_08h18.32.593,tareaTDv3,2020.2.5,Win32,60,,,right,0,0,15,15,75,1,25000,0,35000,60,2.0169
,,,,,,,,,,,,,,,,,,,,,,,002,F453,2022-09-07_08h18.32.593,tareaTDv3,2020.2.5,Win32,60,,,left,1,0,16,16,34,1,5000,0,151000,4,1.6068
,,,,,,,,,,,,,,,,,,,,,,,002,F453,2022-09-07_08h18.32.593,tareaTDv3,2020.2.5,Win32,60,,,right,0,0,17,17,15,1,10000,0,20000,59,1.9493
,,,,,,,,,,,,,,,,,,,,,,,002,F453,2022-09-07_08h18.32.593,tareaTDv3,2020.2.5,Win32,60,,,right,1,0,18,18,84,1,25000,0,150000,89,3.5988
,,,,,,,,,,,,,,,,,,,,,,,002,F453,2022-09-07_08h18.32.593,tareaTDv3,2020.2.5,Win32,60,,,right,0,0,19,19,81,1,25000,0,55000,90,6.7805
,,,,,,,,,,,,,,,,,,,,,,,002,F453,2022-09-07_08h18.32.593,tareaTDv3,2020.2.5,Win32,60,,,left,0,0,20,20,55,1,5000,0,14000,149,4.7036
,,,,,,,,,,,,,,,,,,,,,,,002,F453,2022-09-07_08h18.32.593,tareaTDv3,2020.2.5,Win32,60,,,right,1,0,21,21,37,1,5000,0,56000,9,7.6244
,,,,,,,,,,,,,,,,,,,,,,,002,F453,2022-09-07_08h18.32.593,tareaTDv3,2020.2.5,Win32,60,,,right,1,0,22,22,59,1,5000,0,151000,150,1.8847
,,,,,,,,,,,,,,,,,,,,,,,002,F453,2022-09-07_08h18.32.593,tareaTDv3,2020.2.5,Win32,60,,,right,0,0,23,23,65,1,25000,0,35000,11,8.5219
,,,,,,,,,,,,,,,,,,,,,,,002,F453,2022-09-07_08h18.32.593,tareaTDv3,2020.2.5,Win32,60,,,left,1,0,24,24,4,1,10000,0,150000,5,3.8999
,,,,,,,,,,,,,,,,,,,,,,,002,F453,2022-09-07_08h18.32.593,tareaTDv3,2020.2.5,Win32,60,,,right,0,0,25,25,11,1,10000,0,39000,29,6.2834
,,,,,,,,,,,,,,,,,,,,,,,002,F453,2022-09-07_08h18.32.593,tareaTDv3,2020.2.5,Win32,60,,,right,0,0,26,26,28,1,10000,0,109000,149,7.1265
,,,,,,,,,,,,,,,,,,,,,,,002,F453,2022-09-07_08h18.32.593,tareaTDv3,2020.2.5,Win32,60,,,right,0,0,27,27,25,1,10000,0,10000,150,2.6019
,,,,,,,,,,,,,,,,,,,,,,,002,F453,2022-09-07_08h18.32.593,tareaTDv3,2020.2.5,Win32,60,,,right,1,0,28,28,62,1,25000,0,75000,5,1.4463
,,,,,,,,,,,,,,,,,,,,,,,002,F453,2022-09-07_08h18.32.593,tareaTDv3,2020.2.5,Win32,60,,,right,0,0,29,29,50,1,5000,0,15000,91,8.1034
,,,,,,,,,,,,,,,,,,,,,,,002,F453,2022-09-07_08h18.32.593,tareaTDv3,2020.2.5,Win32,60,,,right,0,0,30,30,85,1,25000,0,35000,150,2.5021
,,,,,,,,,,,,,,,,,,,,,,,002,F453,2022-09-07_08h18.32.593,tareaTDv3,2020.2.5,Win32,60,,,right,1,0,31,31,3,1,10000,0,109000,5,2.1783
,,,,,,,,,,,,,,,,,,,,,,,002,F453,2022-09-07_08h18.32.593,tareaTDv3,2020.2.5,Win32,60,,,right,1,0,32,32,64,1,25000,0,150000,4,2.3145
,,,,,,,,,,,,,,,,,,,,,,,002,F453,2022-09-07_08h18.32.593,tareaTDv3,2020.2.5,Win32,60,,,left,0,0,33,33,5,1,10000,0,19000,11,4.3997
,,,,,,,,,,,,,,,,,,,,,,,002,F453,2022-09-07_08h18.32.593,tareaTDv3,2020.2.5,Win32,60,,,left,1,0,34,34,9,1,10000,0,151000,11,5.122
,,,,,,,,,,,,,,,,,,,,,,,002,F453,2022-09-07_08h18.32.593,tareaTDv3,2020.2.5,Win32,60,,,right,1,0,35,35,60,1,25000,0,35000,5,4.6183
,,,,,,,,,,,,,,,,,,,,,,,002,F453,2022-09-07_08h18.32.593,tareaTDv3,2020.2.5,Win32,60,,,right,0,0,36,36,51,1,5000,0,35000,89,2.9491
,,,,,,,,,,,,,,,,,,,,,,,002,F453,2022-09-07_08h18.32.593,tareaTDv3,2020.2.5,Win32,60,,,right,0,0,37,37,87,1,25000,0,75000,151,2.6666
,,,,,,,,,,,,,,,,,,,,,,,002,F453,2022-09-07_08h18.32.593,tareaTDv3,2020.2.5,Win32,60,,,right,1,0,38,38,44,1,5000,0,150000,30,10.6071
,,,,,,,,,,,,,,,,,,,,,,,002,F453,2022-09-07_08h18.32.593,tareaTDv3,2020.2.5,Win32,60,,,left,1,0,39,39,23,1,10000,0,110000,90,5.8963
,,,,,,,,,,,,,,,,,,,,,,,002,F453,2022-09-07_08h18.32.593,tareaTDv3,2020.2.5,Win32,60,,,left,0,0,40,40,52,1,5000,0,56000,89,2.6279
,,,,,,,,,,,,,,,,,,,,,,,002,F453,2022-09-07_08h18.32.593,tareaTDv3,2020.2.5,Win32,60,,,right,0,0,41,41,57,1,5000,0,55000,151,4.9533
,,,,,,,,,,,,,,,,,,,,,,,002,F453,2022-09-07_08h18.32.593,tareaTDv3,2020.2.5,Win32,60,,,left,0,0,42,42,79,1,25000,0,150000,61,3.4807
,,,,,,,,,,,,,,,,,,,,,,,002,F453,2022-09-07_08h18.32.593,tareaTDv3,2020.2.5,Win32,60,,,right,0,0,43,43,47,1,5000,0,56000,60,2.2155
,,,,,,,,,,,,,,,,,,,,,,,002,F453,2022-09-07_08h18.32.593,tareaTDv3,2020.2.5,Win32,60,,,left,0,0,44,44,7,1,10000,0,59000,9,5.221
,,,,,,,,,,,,,,,,,,,,,,,002,F453,2022-09-07_08h18.32.593,tareaTDv3,2020.2.5,Win32,60,,,left,0,0,45,45,22,1,10000,0,61000,89,2.3145
,,,,,,,,,,,,,,,,,,,,,,,002,F453,2022-09-07_08h18.32.593,tareaTDv3,2020.2.5,Win32,60,,,left,1,0,46,46,70,1,25000,0,35000,30,2.2988
,,,,,,,,,,,,,,,,,,,,,,,002,F453,2022-09-07_08h18.32.593,tareaTDv3,2020.2.5,Win32,60,,,right,1,0,47,47,72,1,25000,0,75000,31,6.1983
,,,,,,,,,,,,,,,,,,,,,,,002,F453,2022-09-07_08h18.32.593,tareaTDv3,2020.2.5,Win32,60,,,left,0,0,48,48,21,1,10000,0,40000,91,5.0364
,,,,,,,,,,,,,,,,,,,,,,,002,F453,2022-09-07_08h18.32.593,tareaTDv3,2020.2.5,Win32,60,,,left,0,0,49,49,76,1,25000,0,55000,60,4.4191
,,,,,,,,,,,,,,,,,,,,,,,002,F453,2022-09-07_08h18.32.593,tareaTDv3,2020.2.5,Win32,60,,,right,0,0,50,50,86,1,25000,0,55000,151,2.4879
,,,,,,,,,,,,,,,,,,,,,,,002,F453,2022-09-07_08h18.32.593,tareaTDv3,2020.2.5,Win32,60,,,left,1,0,51,51,48,1,5000,0,105000,60,2.3618
,,,,,,,,,,,,,,,,,,,,,,,002,F453,2022-09-07_08h18.32.593,tareaTDv3,2020.2.5,Win32,60,,,right,0,0,52,52,40,1,5000,0,14000,31,4.2795
,,,,,,,,,,,,,,,,,,,,,,,002,F453,2022-09-07_08h18.32.593,tareaTDv3,2020.2.5,Win32,60,,,right,1,0,53,53,27,1,10000,0,61000,150,5.8548
,,,,,,,,,,,,,,,,,,,,,,,002,F453,2022-09-07_08h18.32.593,tareaTDv3,2020.2.5,Win32,60,,,left,1,0,54,54,80,1,25000,0,35000,90,1.8584
,,,,,,,,,,,,,,,,,,,,,,,002,F453,2022-09-07_08h18.32.593,tareaTDv3,2020.2.5,Win32,60,,,left,1,0,55,55,1,1,10000,0,39000,6,1.8995
,,,,,,,,,,,,,,,,,,,,,,,002,F453,2022-09-07_08h18.32.593,tareaTDv3,2020.2.5,Win32,60,,,right,1,0,56,56,36,1,5000,0,36000,9,0.9897
,,,,,,,,,,,,,,,,,,,,,,,002,F453,2022-09-07_08h18.32.593,tareaTDv3,2020.2.5,Win32,60,,,left,1,0,57,57,16,1,10000,0,39000,59,2.9239
,,,,,,,,,,,,,,,,,,,,,,,002,F453,2022-09-07_08h18.32.593,tareaTDv3,2020.2.5,Win32,60,,,right,1,0,58,58,20,1,10000,0,20000,90,2.7544
,,,,,,,,,,,,,,,,,,,,,,,002,F453,2022-09-07_08h18.32.593,tareaTDv3,2020.2.5,Win32,60,,,left,1,0,59,59,30,1,5000,0,16000,4,1.7724
,,,,,,,,,,,,,,,,,,,,,,,002,F453,2022-09-07_08h18.32.593,tareaTDv3,2020.2.5,Win32,60,,,right,1,0,60,60,14,1,10000,0,150000,30,1.8156
,,,,,,,,,,,,,,,,,,,,,,,002,F453,2022-09-07_08h18.32.593,tareaTDv3,2020.2.5,Win32,60,,,right,1,0,61,61,33,1,5000,0,104000,5,1.5788
,,,,,,,,,,,,,,,,,,,,,,,002,F453,2022-09-07_08h18.32.593,tareaTDv3,2020.2.5,Win32,60,,,right,1,0,62,62,69,1,25000,0,150000,9,1.0718
,,,,,,,,,,,,,,,,,,,,,,,002,F453,2022-09-07_08h18.32.593,tareaTDv3,2020.2.5,Win32,60,,,left,1,0,63,63,45,1,5000,0,15000,61,4.5814
,,,,,,,,,,,,,,,,,,,,,,,002,F453,2022-09-07_08h18.32.593,tareaTDv3,2020.2.5,Win32,60,,,left,1,0,64,64,41,1,5000,0,35000,31,2.7308
,,,,,,,,,,,,,,,,,,,,,,,002,F453,2022-09-07_08h18.32.593,tareaTDv3,2020.2.5,Win32,60,,,right,1,0,65,65,8,1,10000,0,111000,10,4.3914
,,,,,,,,,,,,,,,,,,,,,,,002,F453,2022-09-07_08h18.32.593,tareaTDv3,2020.2.5,Win32,60,,,left,1,0,66,66,88,1,25000,0,125000,149,5.6485
,,,,,,,,,,,,,,,,,,,,,,,002,F453,2022-09-07_08h18.32.593,tareaTDv3,2020.2.5,Win32,60,,,right,1,0,67,67,77,1,25000,0,75000,59,3.3852
,,,,,,,,,,,,,,,,,,,,,,,002,F453,2022-09-07_08h18.32.593,tareaTDv3,2020.2.5,Win32,60,,,left,1,0,68,68,19,1,10000,0,149000,61,4.3149
,,,,,,,,,,,,,,,,,,,,,,,002,F453,2022-09-07_08h18.32.593,tareaTDv3,2020.2.5,Win32,60,,,left,1,0,69,69,2,1,10000,0,61000,4,2.515
,,,,,,,,,,,,,,,,,,,,,,,002,F453,2022-09-07_08h18.32.593,tareaTDv3,2020.2.5,Win32,60,,,right,1,0,70,70,0,1,10000,0,20000,5,1.1993
,,,,,,,,,,,,,,,,,,,,,,,002,F453,2022-09-07_08h18.32.593,tareaTDv3,2020.2.5,Win32,60,,,right,1,0,71,71,58,1,5000,0,106000,152,2.089
,,,,,,,,,,,,,,,,,,,,,,,002,F453,2022-09-07_08h18.32.593,tareaTDv3,2020.2.5,Win32,60,,,left,1,0,72,72,18,1,10000,0,110000,60,2.6712
,,,,,,,,,,,,,,,,,,,,,,,002,F453,2022-09-07_08h18.32.593,tareaTDv3,2020.2.5,Win32,60,,,right,1,0,73,73,61,1,25000,0,55000,6,6.0228
,,,,,,,,,,,,,,,,,,,,,,,002,F453,2022-09-07_08h18.32.593,tareaTDv3,2020.2.5,Win32,60,,,right,1,0,74,74,10,1,10000,0,21000,31,3.9297
,,,,,,,,,,,,,,,,,,,,,,,002,F453,2022-09-07_08h18.32.593,tareaTDv3,2020.2.5,Win32,60,,,right,1,0,75,75,38,1,5000,0,104000,10,5.8636
,,,,,,,,,,,,,,,,,,,,,,,002,F453,2022-09-07_08h18.32.593,tareaTDv3,2020.2.5,Win32,60,,,left,0,0,76,76,71,1,25000,0,55000,30,7.7596
,,,,,,,,,,,,,,,,,,,,,,,002,F453,2022-09-07_08h18.32.593,tareaTDv3,2020.2.5,Win32,60,,,right,1,0,77,77,31,1,5000,0,35000,6,10.1188
,,,,,,,,,,,,,,,,,,,,,,,002,F453,2022-09-07_08h18.32.593,tareaTDv3,2020.2.5,Win32,60,,,right,1,0,78,78,6,1,10000,0,40000,10,16.1067
,,,,,,,,,,,,,,,,,,,,,,,002,F453,2022-09-07_08h18.32.593,tareaTDv3,2020.2.5,Win32,60,,,right,1,0,79,79,53,1,5000,0,104000,90,1.8082
,,,,,,,,,,,,,,,,,,,,,,,002,F453,2022-09-07_08h18.32.593,tareaTDv3,2020.2.5,Win32,60,,,left,1,0,80,80,68,1,25000,0,125000,9,2.077
,,,,,,,,,,,,,,,,,,,,,,,002,F453,2022-09-07_08h18.32.593,tareaTDv3,2020.2.5,Win32,60,,,left,0,0,81,81,83,1,25000,0,125000,89,2.1077
,,,,,,,,,,,,,,,,,,,,,,,002,F453,2022-09-07_08h18.32.593,tareaTDv3,2020.2.5,Win32,60,,,right,0,0,82,82,43,1,5000,0,106000,29,4.352
,,,,,,,,,,,,,,,,,,,,,,,002,F453,2022-09-07_08h18.32.593,tareaTDv3,2020.2.5,Win32,60,,,right,0,0,83,83,49,1,5000,0,149000,59,9.9853
,,,,,,,,,,,,,,,,,,,,,,,002,F453,2022-09-07_08h18.32.593,tareaTDv3,2020.2.5,Win32,60,,,left,0,0,84,84,46,1,5000,0,36000,61,2.4442
,,,,,,,,,,,,,,,,,,,,,,,002,F453,2022-09-07_08h18.32.593,tareaTDv3,2020.2.5,Win32,60,,,right,1,0,85,85,74,1,25000,0,150000,29,3.8728
,,,,,,,,,,,,,,,,,,,,,,,002,F453,2022-09-07_08h18.32.593,tareaTDv3,2020.2.5,Win32,60,,,right,1,0,86,86,24,1,10000,0,149000,89,4.3628
,,,,,,,,,,,,,,,,,,,,,,,002,F453,2022-09-07_08h18.32.593,tareaTDv3,2020.2.5,Win32,60,,,right,1,0,87,87,63,1,25000,0,125000,4,3.2333
,,,,,,,,,,,,,,,,,,,,,,,002,F453,2022-09-07_08h18.32.593,tareaTDv3,2020.2.5,Win32,60,,,left,1,0,88,88,39,1,5000,0,149000,10,1.923
,,,,,,,,,,,,,,,,,,,,,,,002,F453,2022-09-07_08h18.32.593,tareaTDv3,2020.2.5,Win32,60,,,left,0,0,89,89,78,1,25000,0,125000,59,3.1521
