key1.keys,key1.rt,key2.keys,key2.rt,key2_2.keys,key2_2.rt,key2_3.keys,key2_3.rt,key3.keys,key3.rt,key4.keys,key4.rt,respP.keys,respP.corr,respP.rt,Practice.thisRepN,Practice.thisTrialN,Practice.thisN,Practice.thisIndex,Practice.ran,ssAmount,llAmount,llDelay,session,participant,date,expName,psychopyVersion,OS,frameRate,key5.keys,key5.rt,respT.keys,respT.corr,respT.rt,trials.thisRepN,trials.thisTrialN,trials.thisN,trials.thisIndex,trials.ran,ss_Amt,ss_Delay,ll_Amt,ll_Delay
space,5.0072,space,29.036,space,31.457,space,3.9232,right,34.3388,space,10.8111,left,0,12.2518,0,0,0,0,1,10000,109000,9,07-09-2022,f482,2022-09-07_09h07.50.696,tareaTDv3,2020.2.5,Win32,60,,,,,,,,,,,,,,
,,,,,,,,,,,,right,0,10.863,0,1,1,2,1,10000,19000,89,07-09-2022,f482,2022-09-07_09h07.50.696,tareaTDv3,2020.2.5,Win32,60,,,,,,,,,,,,,,
,,,,,,,,,,,,right,0,7.3137,0,2,2,1,1,25000,35000,150,07-09-2022,f482,2022-09-07_09h07.50.696,tareaTDv3,2020.2.5,Win32,60,,,,,,,,,,,,,,
,,,,,,,,,,,,,,,,,,,,,,,07-09-2022,f482,2022-09-07_09h07.50.696,tareaTDv3,2020.2.5,Win32,60,g,1.73,right,0,11.3976,0,0,0,11,1,10000,0,39000,29
,,,,,,,,,,,,,,,,,,,,,,,07-09-2022,f482,2022-09-07_09h07.50.696,tareaTDv3,2020.2.5,Win32,60,,,left,1,7.5529,0,1,1,48,1,5000,0,105000,60
,,,,,,,,,,,,,,,,,,,,,,,07-09-2022,f482,2022-09-07_09h07.50.696,tareaTDv3,2020.2.5,Win32,60,,,left,0,4.2117,0,2,2,27,1,10000,0,61000,150
,,,,,,,,,,,,,,,,,,,,,,,07-09-2022,f482,2022-09-07_09h07.50.696,tareaTDv3,2020.2.5,Win32,60,,,right,1,4.6751,0,3,3,63,1,25000,0,125000,4
,,,,,,,,,,,,,,,,,,,,,,,07-09-2022,f482,2022-09-07_09h07.50.696,tareaTDv3,2020.2.5,Win32,60,,,right,1,7.0494,0,4,4,58,1,5000,0,106000,152
,,,,,,,,,,,,,,,,,,,,,,,07-09-2022,f482,2022-09-07_09h07.50.696,tareaTDv3,2020.2.5,Win32,60,,,right,1,1.4213,0,5,5,33,1,5000,0,104000,5
,,,,,,,,,,,,,,,,,,,,,,,07-09-2022,f482,2022-09-07_09h07.50.696,tareaTDv3,2020.2.5,Win32,60,,,left,1,3.9755,0,6,6,67,1,25000,0,75000,10
,,,,,,,,,,,,,,,,,,,,,,,07-09-2022,f482,2022-09-07_09h07.50.696,tareaTDv3,2020.2.5,Win32,60,,,left,0,5.2031,0,7,7,71,1,25000,0,55000,30
,,,,,,,,,,,,,,,,,,,,,,,07-09-2022,f482,2022-09-07_09h07.50.696,tareaTDv3,2020.2.5,Win32,60,,,left,0,3.1859,0,8,8,56,1,5000,0,35000,150
,,,,,,,,,,,,,,,,,,,,,,,07-09-2022,f482,2022-09-07_09h07.50.696,tareaTDv3,2020.2.5,Win32,60,,,right,1,4.7919,0,9,9,59,1,5000,0,151000,150
,,,,,,,,,,,,,,,,,,,,,,,07-09-2022,f482,2022-09-07_09h07.50.696,tareaTDv3,2020.2.5,Win32,60,,,right,0,4.8701,0,10,10,88,1,25000,0,125000,149
,,,,,,,,,,,,,,,,,,,,,,,07-09-2022,f482,2022-09-07_09h07.50.696,tareaTDv3,2020.2.5,Win32,60,,,right,1,1.9289,0,11,11,64,1,25000,0,150000,4
,,,,,,,,,,,,,,,,,,,,,,,07-09-2022,f482,2022-09-07_09h07.50.696,tareaTDv3,2020.2.5,Win32,60,,,right,1,2.189,0,12,12,13,1,10000,0,111000,30
,,,,,,,,,,,,,,,,,,,,,,,07-09-2022,f482,2022-09-07_09h07.50.696,tareaTDv3,2020.2.5,Win32,60,,,left,1,2.2163,0,13,13,1,1,10000,0,39000,6
,,,,,,,,,,,,,,,,,,,,,,,07-09-2022,f482,2022-09-07_09h07.50.696,tareaTDv3,2020.2.5,Win32,60,,,left,0,4.4422,0,14,14,6,1,10000,0,40000,10
,,,,,,,,,,,,,,,,,,,,,,,07-09-2022,f482,2022-09-07_09h07.50.696,tareaTDv3,2020.2.5,Win32,60,,,right,0,3.3928,0,15,15,89,1,25000,0,150000,150
,,,,,,,,,,,,,,,,,,,,,,,07-09-2022,f482,2022-09-07_09h07.50.696,tareaTDv3,2020.2.5,Win32,60,,,right,1,2.919,0,16,16,42,1,5000,0,56000,29
,,,,,,,,,,,,,,,,,,,,,,,07-09-2022,f482,2022-09-07_09h07.50.696,tareaTDv3,2020.2.5,Win32,60,,,left,1,2.2311,0,17,17,19,1,10000,0,149000,61
,,,,,,,,,,,,,,,,,,,,,,,07-09-2022,f482,2022-09-07_09h07.50.696,tareaTDv3,2020.2.5,Win32,60,,,left,1,2.3608,0,18,18,66,1,25000,0,55000,11
,,,,,,,,,,,,,,,,,,,,,,,07-09-2022,f482,2022-09-07_09h07.50.696,tareaTDv3,2020.2.5,Win32,60,,,left,0,2.9965,0,19,19,21,1,10000,0,40000,91
,,,,,,,,,,,,,,,,,,,,,,,07-09-2022,f482,2022-09-07_09h07.50.696,tareaTDv3,2020.2.5,Win32,60,,,right,0,3.5403,0,20,20,28,1,10000,0,109000,149
,,,,,,,,,,,,,,,,,,,,,,,07-09-2022,f482,2022-09-07_09h07.50.696,tareaTDv3,2020.2.5,Win32,60,,,right,0,3.834,0,21,21,82,1,25000,0,75000,90
,,,,,,,,,,,,,,,,,,,,,,,07-09-2022,f482,2022-09-07_09h07.50.696,tareaTDv3,2020.2.5,Win32,60,,,right,1,3.1924,0,22,22,69,1,25000,0,150000,9
,,,,,,,,,,,,,,,,,,,,,,,07-09-2022,f482,2022-09-07_09h07.50.696,tareaTDv3,2020.2.5,Win32,60,,,left,0,5.661,0,23,23,72,1,25000,0,75000,31
,,,,,,,,,,,,,,,,,,,,,,,07-09-2022,f482,2022-09-07_09h07.50.696,tareaTDv3,2020.2.5,Win32,60,,,right,0,3.2308,0,24,24,25,1,10000,0,10000,150
,,,,,,,,,,,,,,,,,,,,,,,07-09-2022,f482,2022-09-07_09h07.50.696,tareaTDv3,2020.2.5,Win32,60,,,right,1,5.9176,0,25,25,78,1,25000,0,125000,59
,,,,,,,,,,,,,,,,,,,,,,,07-09-2022,f482,2022-09-07_09h07.50.696,tareaTDv3,2020.2.5,Win32,60,,,left,0,5.0532,0,26,26,41,1,5000,0,35000,31
,,,,,,,,,,,,,,,,,,,,,,,07-09-2022,f482,2022-09-07_09h07.50.696,tareaTDv3,2020.2.5,Win32,60,,,left,0,2.0782,0,27,27,9,1,10000,0,151000,11
,,,,,,,,,,,,,,,,,,,,,,,07-09-2022,f482,2022-09-07_09h07.50.696,tareaTDv3,2020.2.5,Win32,60,,,left,0,4.1726,0,28,28,76,1,25000,0,55000,60
,,,,,,,,,,,,,,,,,,,,,,,07-09-2022,f482,2022-09-07_09h07.50.696,tareaTDv3,2020.2.5,Win32,60,,,right,1,8.4663,0,29,29,47,1,5000,0,56000,60
,,,,,,,,,,,,,,,,,,,,,,,07-09-2022,f482,2022-09-07_09h07.50.696,tareaTDv3,2020.2.5,Win32,60,,,right,1,3.6569,0,30,30,68,1,25000,0,125000,9
,,,,,,,,,,,,,,,,,,,,,,,07-09-2022,f482,2022-09-07_09h07.50.696,tareaTDv3,2020.2.5,Win32,60,,,right,1,2.7992,0,31,31,37,1,5000,0,56000,9
,,,,,,,,,,,,,,,,,,,,,,,07-09-2022,f482,2022-09-07_09h07.50.696,tareaTDv3,2020.2.5,Win32,60,,,left,0,7.7073,0,32,32,86,1,25000,0,55000,151
,,,,,,,,,,,,,,,,,,,,,,,07-09-2022,f482,2022-09-07_09h07.50.696,tareaTDv3,2020.2.5,Win32,60,,,left,1,11.4004,0,33,33,32,1,5000,0,54000,5
,,,,,,,,,,,,,,,,,,,,,,,07-09-2022,f482,2022-09-07_09h07.50.696,tareaTDv3,2020.2.5,Win32,60,,,left,0,7.6628,0,34,34,60,1,25000,0,35000,5
,,,,,,,,,,,,,,,,,,,,,,,07-09-2022,f482,2022-09-07_09h07.50.696,tareaTDv3,2020.2.5,Win32,60,,,right,0,4.2343,0,35,35,77,1,25000,0,75000,59
,,,,,,,,,,,,,,,,,,,,,,,07-09-2022,f482,2022-09-07_09h07.50.696,tareaTDv3,2020.2.5,Win32,60,,,left,0,9.2747,0,36,36,53,1,5000,0,104000,90
,,,,,,,,,,,,,,,,,,,,,,,07-09-2022,f482,2022-09-07_09h07.50.696,tareaTDv3,2020.2.5,Win32,60,,,right,0,4.4996,0,37,37,5,1,10000,0,19000,11
,,,,,,,,,,,,,,,,,,,,,,,07-09-2022,f482,2022-09-07_09h07.50.696,tareaTDv3,2020.2.5,Win32,60,,,left,1,1.4246,0,38,38,30,1,5000,0,16000,4
,,,,,,,,,,,,,,,,,,,,,,,07-09-2022,f482,2022-09-07_09h07.50.696,tareaTDv3,2020.2.5,Win32,60,,,left,0,4.1283,0,39,39,22,1,10000,0,61000,89
,,,,,,,,,,,,,,,,,,,,,,,07-09-2022,f482,2022-09-07_09h07.50.696,tareaTDv3,2020.2.5,Win32,60,,,right,0,4.8371,0,40,40,80,1,25000,0,35000,90
,,,,,,,,,,,,,,,,,,,,,,,07-09-2022,f482,2022-09-07_09h07.50.696,tareaTDv3,2020.2.5,Win32,60,,,left,1,2.2113,0,41,41,73,1,25000,0,125000,31
,,,,,,,,,,,,,,,,,,,,,,,07-09-2022,f482,2022-09-07_09h07.50.696,tareaTDv3,2020.2.5,Win32,60,,,left,1,3.9487,0,42,42,54,1,5000,0,150000,90
,,,,,,,,,,,,,,,,,,,,,,,07-09-2022,f482,2022-09-07_09h07.50.696,tareaTDv3,2020.2.5,Win32,60,,,right,1,1.3425,0,43,43,3,1,10000,0,109000,5
,,,,,,,,,,,,,,,,,,,,,,,07-09-2022,f482,2022-09-07_09h07.50.696,tareaTDv3,2020.2.5,Win32,60,,,left,0,3.8174,0,44,44,40,1,5000,0,14000,31
,,,,,,,,,,,,,,,,,,,,,,,07-09-2022,f482,2022-09-07_09h07.50.696,tareaTDv3,2020.2.5,Win32,60,,,right,1,4.0894,0,45,45,4,1,10000,0,150000,5
,,,,,,,,,,,,,,,,,,,,,,,07-09-2022,f482,2022-09-07_09h07.50.696,tareaTDv3,2020.2.5,Win32,60,,,right,1,6.4277,0,46,46,74,1,25000,0,150000,29
,,,,,,,,,,,,,,,,,,,,,,,07-09-2022,f482,2022-09-07_09h07.50.696,tareaTDv3,2020.2.5,Win32,60,,,left,0,3.5925,0,47,47,70,1,25000,0,35000,30
,,,,,,,,,,,,,,,,,,,,,,,07-09-2022,f482,2022-09-07_09h07.50.696,tareaTDv3,2020.2.5,Win32,60,,,right,1,4.0952,0,48,48,51,1,5000,0,35000,89
,,,,,,,,,,,,,,,,,,,,,,,07-09-2022,f482,2022-09-07_09h07.50.696,tareaTDv3,2020.2.5,Win32,60,,,left,1,2.7097,0,49,49,81,1,25000,0,55000,90
,,,,,,,,,,,,,,,,,,,,,,,07-09-2022,f482,2022-09-07_09h07.50.696,tareaTDv3,2020.2.5,Win32,60,,,right,1,3.4188,0,50,50,87,1,25000,0,75000,151
,,,,,,,,,,,,,,,,,,,,,,,07-09-2022,f482,2022-09-07_09h07.50.696,tareaTDv3,2020.2.5,Win32,60,,,left,1,1.9995,0,51,51,38,1,5000,0,104000,10
,,,,,,,,,,,,,,,,,,,,,,,07-09-2022,f482,2022-09-07_09h07.50.696,tareaTDv3,2020.2.5,Win32,60,,,left,1,3.834,0,52,52,0,1,10000,0,20000,5
,,,,,,,,,,,,,,,,,,,,,,,07-09-2022,f482,2022-09-07_09h07.50.696,tareaTDv3,2020.2.5,Win32,60,,,right,0,3.6242,0,53,53,10,1,10000,0,21000,31
,,,,,,,,,,,,,,,,,,,,,,,07-09-2022,f482,2022-09-07_09h07.50.696,tareaTDv3,2020.2.5,Win32,60,,,left,1,1.4692,0,54,54,62,1,25000,0,75000,5
,,,,,,,,,,,,,,,,,,,,,,,07-09-2022,f482,2022-09-07_09h07.50.696,tareaTDv3,2020.2.5,Win32,60,,,left,0,2.9308,0,55,55,20,1,10000,0,20000,90
,,,,,,,,,,,,,,,,,,,,,,,07-09-2022,f482,2022-09-07_09h07.50.696,tareaTDv3,2020.2.5,Win32,60,,,right,1,4.6579,0,56,56,84,1,25000,0,150000,89
,,,,,,,,,,,,,,,,,,,,,,,07-09-2022,f482,2022-09-07_09h07.50.696,tareaTDv3,2020.2.5,Win32,60,,,right,1,6.6893,0,57,57,16,1,10000,0,39000,59
,,,,,,,,,,,,,,,,,,,,,,,07-09-2022,f482,2022-09-07_09h07.50.696,tareaTDv3,2020.2.5,Win32,60,,,right,1,1.3719,0,58,58,49,1,5000,0,149000,59
,,,,,,,,,,,,,,,,,,,,,,,07-09-2022,f482,2022-09-07_09h07.50.696,tareaTDv3,2020.2.5,Win32,60,,,right,0,7.4137,0,59,59,50,1,5000,0,15000,91
,,,,,,,,,,,,,,,,,,,,,,,07-09-2022,f482,2022-09-07_09h07.50.696,tareaTDv3,2020.2.5,Win32,60,,,right,1,2.4374,0,60,60,39,1,5000,0,149000,10
,,,,,,,,,,,,,,,,,,,,,,,07-09-2022,f482,2022-09-07_09h07.50.696,tareaTDv3,2020.2.5,Win32,60,,,right,1,4.3113,0,61,61,46,1,5000,0,36000,61
,,,,,,,,,,,,,,,,,,,,,,,07-09-2022,f482,2022-09-07_09h07.50.696,tareaTDv3,2020.2.5,Win32,60,,,left,1,2.0285,0,62,62,15,1,10000,0,20000,59
,,,,,,,,,,,,,,,,,,,,,,,07-09-2022,f482,2022-09-07_09h07.50.696,tareaTDv3,2020.2.5,Win32,60,,,right,1,2.1641,0,63,63,24,1,10000,0,149000,89
,,,,,,,,,,,,,,,,,,,,,,,07-09-2022,f482,2022-09-07_09h07.50.696,tareaTDv3,2020.2.5,Win32,60,,,left,1,1.6081,0,64,64,2,1,10000,0,61000,4
,,,,,,,,,,,,,,,,,,,,,,,07-09-2022,f482,2022-09-07_09h07.50.696,tareaTDv3,2020.2.5,Win32,60,,,left,1,3.9449,0,65,65,83,1,25000,0,125000,89
,,,,,,,,,,,,,,,,,,,,,,,07-09-2022,f482,2022-09-07_09h07.50.696,tareaTDv3,2020.2.5,Win32,60,,,right,1,2.4107,0,66,66,65,1,25000,0,35000,11
,,,,,,,,,,,,,,,,,,,,,,,07-09-2022,f482,2022-09-07_09h07.50.696,tareaTDv3,2020.2.5,Win32,60,,,left,1,6.0372,0,67,67,61,1,25000,0,55000,6
,,,,,,,,,,,,,,,,,,,,,,,07-09-2022,f482,2022-09-07_09h07.50.696,tareaTDv3,2020.2.5,Win32,60,,,left,1,2.264,0,68,68,18,1,10000,0,110000,60
,,,,,,,,,,,,,,,,,,,,,,,07-09-2022,f482,2022-09-07_09h07.50.696,tareaTDv3,2020.2.5,Win32,60,,,left,1,4.8883,0,69,69,35,1,5000,0,15000,11
,,,,,,,,,,,,,,,,,,,,,,,07-09-2022,f482,2022-09-07_09h07.50.696,tareaTDv3,2020.2.5,Win32,60,,,left,1,4.4225,0,70,70,23,1,10000,0,110000,90
,,,,,,,,,,,,,,,,,,,,,,,07-09-2022,f482,2022-09-07_09h07.50.696,tareaTDv3,2020.2.5,Win32,60,,,right,1,1.3304,0,71,71,79,1,25000,0,150000,61
,,,,,,,,,,,,,,,,,,,,,,,07-09-2022,f482,2022-09-07_09h07.50.696,tareaTDv3,2020.2.5,Win32,60,,,left,1,2.1129,0,72,72,34,1,5000,0,151000,4
,,,,,,,,,,,,,,,,,,,,,,,07-09-2022,f482,2022-09-07_09h07.50.696,tareaTDv3,2020.2.5,Win32,60,,,left,1,1.5749,0,73,73,44,1,5000,0,150000,30
,,,,,,,,,,,,,,,,,,,,,,,07-09-2022,f482,2022-09-07_09h07.50.696,tareaTDv3,2020.2.5,Win32,60,,,left,0,4.6883,0,74,74,26,1,10000,0,39000,150
,,,,,,,,,,,,,,,,,,,,,,,07-09-2022,f482,2022-09-07_09h07.50.696,tareaTDv3,2020.2.5,Win32,60,,,right,1,11.9022,0,75,75,7,1,10000,0,59000,9
,,,,,,,,,,,,,,,,,,,,,,,07-09-2022,f482,2022-09-07_09h07.50.696,tareaTDv3,2020.2.5,Win32,60,,,left,1,7.912,0,76,76,52,1,5000,0,56000,89
,,,,,,,,,,,,,,,,,,,,,,,07-09-2022,f482,2022-09-07_09h07.50.696,tareaTDv3,2020.2.5,Win32,60,,,left,0,2.66,0,77,77,85,1,25000,0,35000,150
,,,,,,,,,,,,,,,,,,,,,,,07-09-2022,f482,2022-09-07_09h07.50.696,tareaTDv3,2020.2.5,Win32,60,,,left,1,3.0045,0,78,78,14,1,10000,0,150000,30
,,,,,,,,,,,,,,,,,,,,,,,07-09-2022,f482,2022-09-07_09h07.50.696,tareaTDv3,2020.2.5,Win32,60,,,left,0,4.5925,0,79,79,55,1,5000,0,14000,149
,,,,,,,,,,,,,,,,,,,,,,,07-09-2022,f482,2022-09-07_09h07.50.696,tareaTDv3,2020.2.5,Win32,60,,,left,1,5.0367,0,80,80,17,1,10000,0,60000,60
,,,,,,,,,,,,,,,,,,,,,,,07-09-2022,f482,2022-09-07_09h07.50.696,tareaTDv3,2020.2.5,Win32,60,,,left,1,5.0904,0,81,81,8,1,10000,0,111000,10
,,,,,,,,,,,,,,,,,,,,,,,07-09-2022,f482,2022-09-07_09h07.50.696,tareaTDv3,2020.2.5,Win32,60,,,left,0,2.5292,0,82,82,45,1,5000,0,15000,61
,,,,,,,,,,,,,,,,,,,,,,,07-09-2022,f482,2022-09-07_09h07.50.696,tareaTDv3,2020.2.5,Win32,60,,,left,0,2.7929,0,83,83,31,1,5000,0,35000,6
,,,,,,,,,,,,,,,,,,,,,,,07-09-2022,f482,2022-09-07_09h07.50.696,tareaTDv3,2020.2.5,Win32,60,,,left,1,3.508,0,84,84,57,1,5000,0,55000,151
,,,,,,,,,,,,,,,,,,,,,,,07-09-2022,f482,2022-09-07_09h07.50.696,tareaTDv3,2020.2.5,Win32,60,,,left,1,4.7378,0,85,85,43,1,5000,0,106000,29
,,,,,,,,,,,,,,,,,,,,,,,07-09-2022,f482,2022-09-07_09h07.50.696,tareaTDv3,2020.2.5,Win32,60,,,left,0,4.0966,0,86,86,29,1,10000,0,151000,151
,,,,,,,,,,,,,,,,,,,,,,,07-09-2022,f482,2022-09-07_09h07.50.696,tareaTDv3,2020.2.5,Win32,60,,,right,1,3.1486,0,87,87,36,1,5000,0,36000,9
,,,,,,,,,,,,,,,,,,,,,,,07-09-2022,f482,2022-09-07_09h07.50.696,tareaTDv3,2020.2.5,Win32,60,,,left,0,3.9873,0,88,88,12,1,10000,0,60000,29
,,,,,,,,,,,,,,,,,,,,,,,07-09-2022,f482,2022-09-07_09h07.50.696,tareaTDv3,2020.2.5,Win32,60,,,left,0,6.7401,0,89,89,75,1,25000,0,35000,60
