key1.keys,key1.rt,key2.keys,key2.rt,key2_2.keys,key2_2.rt,key2_3.keys,key2_3.rt,key3.keys,key3.rt,key4.keys,key4.rt,respP.keys,respP.corr,respP.rt,Practice.thisRepN,Practice.thisTrialN,Practice.thisN,Practice.thisIndex,Practice.ran,ssAmount,llAmount,llDelay,session,participant,date,expName,psychopyVersion,OS,frameRate,key5.keys,key5.rt,respT.keys,respT.corr,trials.thisRepN,trials.thisTrialN,trials.thisN,trials.thisIndex,trials.ran,ss_Amt,ss_Delay,ll_Amt,ll_Delay,respT.rt,key_resp_4.keys,key_resp_4.rt
space,102.7628,space,31.780425,space,34.901625,space,12.16741,right,12.220315,space,3.653925,right,0,8.18704,0,0,0,1,1,25000,35000,150,002,000000,2020-11-12_08h35.51.096,tareaTDv3,2020.2.5,Win32,60,,,,,,,,,,,,,,,,
,,,,,,,,,,,,left,1,9.783715,0,1,1,2,1,10000,19000,89,002,000000,2020-11-12_08h35.51.096,tareaTDv3,2020.2.5,Win32,60,,,,,,,,,,,,,,,,
,,,,,,,,,,,,right,1,6.479505,0,2,2,0,1,10000,109000,9,002,000000,2020-11-12_08h35.51.096,tareaTDv3,2020.2.5,Win32,60,,,,,,,,,,,,,,,,
,,,,,,,,,,,,,,,,,,,,,,,002,000000,2020-11-12_08h35.51.096,tareaTDv3,2020.2.5,Win32,60,g,62.55569,,0,0,0,0,77,1,25000,0,75000,59,,,
,,,,,,,,,,,,,,,,,,,,,,,002,000000,2020-11-12_08h35.51.096,tareaTDv3,2020.2.5,Win32,60,,,right,1,0,1,1,48,1,5000,0,105000,60,0.253695,,
,,,,,,,,,,,,,,,,,,,,,,,002,000000,2020-11-12_08h35.51.096,tareaTDv3,2020.2.5,Win32,60,,,left,1,0,2,2,60,1,25000,0,35000,5,0.67389,,
,,,,,,,,,,,,,,,,,,,,,,,002,000000,2020-11-12_08h35.51.096,tareaTDv3,2020.2.5,Win32,60,,,right,1,0,3,3,78,1,25000,0,125000,59,0.653945,,
,,,,,,,,,,,,,,,,,,,,,,,002,000000,2020-11-12_08h35.51.096,tareaTDv3,2020.2.5,Win32,60,,,right,1,0,4,4,18,1,10000,0,110000,60,4.52526,,
,,,,,,,,,,,,,,,,,,,,,,,002,000000,2020-11-12_08h35.51.096,tareaTDv3,2020.2.5,Win32,60,,,left,0,0,5,5,88,1,25000,0,125000,149,0.10108,,
,,,,,,,,,,,,,,,,,,,,,,,002,000000,2020-11-12_08h35.51.096,tareaTDv3,2020.2.5,Win32,60,,,right,0,0,6,6,38,1,5000,0,104000,10,7.790725,,
,,,,,,,,,,,,,,,,,,,,,,,002,000000,2020-11-12_08h35.51.096,tareaTDv3,2020.2.5,Win32,60,,,right,0,0,7,7,27,1,10000,0,61000,150,12.92601,,
,,,,,,,,,,,,,,,,,,,,,,,002,000000,2020-11-12_08h35.51.096,tareaTDv3,2020.2.5,Win32,60,,,right,0,0,8,8,43,1,5000,0,106000,29,1.117035,,
,,,,,,,,,,,,,,,,,,,,,,,002,000000,2020-11-12_08h35.51.096,tareaTDv3,2020.2.5,Win32,60,,,right,0,0,9,9,85,1,25000,0,35000,150,0.107815,,
,,,,,,,,,,,,,,,,,,,,,,,002,000000,2020-11-12_08h35.51.096,tareaTDv3,2020.2.5,Win32,60,,,left,0,0,10,10,44,1,5000,0,150000,30,0.007935,,
,,,,,,,,,,,,,,,,,,,,,,,002,000000,2020-11-12_08h35.51.096,tareaTDv3,2020.2.5,Win32,60,,,left,1,0,11,11,76,1,25000,0,55000,60,0.903825,,
,,,,,,,,,,,,,,,,,,,,,,,002,000000,2020-11-12_08h35.51.096,tareaTDv3,2020.2.5,Win32,60,,,right,1,0,12,12,28,1,10000,0,109000,149,7.12441,,
,,,,,,,,,,,,,,,,,,,,,,,002,000000,2020-11-12_08h35.51.096,tareaTDv3,2020.2.5,Win32,60,,,right,1,0,13,13,41,1,5000,0,35000,31,3.960025,,
,,,,,,,,,,,,,,,,,,,,,,,002,000000,2020-11-12_08h35.51.096,tareaTDv3,2020.2.5,Win32,60,,,right,1,0,14,14,58,1,5000,0,106000,152,5.37211,,
,,,,,,,,,,,,,,,,,,,,,,,002,000000,2020-11-12_08h35.51.096,tareaTDv3,2020.2.5,Win32,60,,,right,1,0,15,15,25,1,10000,0,10000,150,0.480485,,
,,,,,,,,,,,,,,,,,,,,,,,002,000000,2020-11-12_08h35.51.096,tareaTDv3,2020.2.5,Win32,60,,,right,0,0,16,16,14,1,10000,0,150000,30,0.639115,,
,,,,,,,,,,,,,,,,,,,,,,,002,000000,2020-11-12_08h35.51.096,tareaTDv3,2020.2.5,Win32,60,,,right,1,0,17,17,8,1,10000,0,111000,10,0.48768,,
,,,,,,,,,,,,,,,,,,,,,,,002,000000,2020-11-12_08h35.51.096,tareaTDv3,2020.2.5,Win32,60,,,left,1,0,18,18,47,1,5000,0,56000,60,0.503405,,
,,,,,,,,,,,,,,,,,,,,,,,002,000000,2020-11-12_08h35.51.096,tareaTDv3,2020.2.5,Win32,60,,,right,1,0,19,19,31,1,5000,0,35000,6,0.61332,,
,,,,,,,,,,,,,,,,,,,,,,,002,000000,2020-11-12_08h35.51.096,tareaTDv3,2020.2.5,Win32,60,,,left,0,0,20,20,72,1,25000,0,75000,31,0.058345,,
,,,,,,,,,,,,,,,,,,,,,,,002,000000,2020-11-12_08h35.51.096,tareaTDv3,2020.2.5,Win32,60,,,right,0,0,21,21,66,1,25000,0,55000,11,1.67029,,
,,,,,,,,,,,,,,,,,,,,,,,002,000000,2020-11-12_08h35.51.096,tareaTDv3,2020.2.5,Win32,60,,,left,1,0,22,22,89,1,25000,0,150000,150,1.32695,,
,,,,,,,,,,,,,,,,,,,,,,,002,000000,2020-11-12_08h35.51.096,tareaTDv3,2020.2.5,Win32,60,,,right,1,0,23,23,79,1,25000,0,150000,61,4.66861,,
,,,,,,,,,,,,,,,,,,,,,,,002,000000,2020-11-12_08h35.51.096,tareaTDv3,2020.2.5,Win32,60,,,right,1,0,24,24,30,1,5000,0,16000,4,0.398495,,
,,,,,,,,,,,,,,,,,,,,,,,002,000000,2020-11-12_08h35.51.096,tareaTDv3,2020.2.5,Win32,60,,,right,0,0,25,25,64,1,25000,0,150000,4,0.59067,,
,,,,,,,,,,,,,,,,,,,,,,,002,000000,2020-11-12_08h35.51.096,tareaTDv3,2020.2.5,Win32,60,,,right,0,0,26,26,40,1,5000,0,14000,31,0.61802,,
,,,,,,,,,,,,,,,,,,,,,,,002,000000,2020-11-12_08h35.51.096,tareaTDv3,2020.2.5,Win32,60,,,right,0,0,27,27,71,1,25000,0,55000,30,0.079395,,
,,,,,,,,,,,,,,,,,,,,,,,002,000000,2020-11-12_08h35.51.096,tareaTDv3,2020.2.5,Win32,60,,,right,1,0,28,28,33,1,5000,0,104000,5,0.095365,,
,,,,,,,,,,,,,,,,,,,,,,,002,000000,2020-11-12_08h35.51.096,tareaTDv3,2020.2.5,Win32,60,,,right,1,0,29,29,70,1,25000,0,35000,30,0.09298,,
,,,,,,,,,,,,,,,,,,,,,,,002,000000,2020-11-12_08h35.51.096,tareaTDv3,2020.2.5,Win32,60,,,right,0,0,30,30,54,1,5000,0,150000,90,0.190255,,
,,,,,,,,,,,,,,,,,,,,,,,002,000000,2020-11-12_08h35.51.096,tareaTDv3,2020.2.5,Win32,60,,,left,0,0,31,31,6,1,10000,0,40000,10,0.935645,,
,,,,,,,,,,,,,,,,,,,,,,,002,000000,2020-11-12_08h35.51.096,tareaTDv3,2020.2.5,Win32,60,,,right,1,0,32,32,1,1,10000,0,39000,6,3.61839,,
,,,,,,,,,,,,,,,,,,,,,,,002,000000,2020-11-12_08h35.51.096,tareaTDv3,2020.2.5,Win32,60,,,right,1,0,33,33,61,1,25000,0,55000,6,0.14487,,
,,,,,,,,,,,,,,,,,,,,,,,002,000000,2020-11-12_08h35.51.096,tareaTDv3,2020.2.5,Win32,60,,,right,1,0,34,34,35,1,5000,0,15000,11,0.851155,,
,,,,,,,,,,,,,,,,,,,,,,,002,000000,2020-11-12_08h35.51.096,tareaTDv3,2020.2.5,Win32,60,,,right,0,0,35,35,22,1,10000,0,61000,89,0.017955,,
,,,,,,,,,,,,,,,,,,,,,,,002,000000,2020-11-12_08h35.51.096,tareaTDv3,2020.2.5,Win32,60,,,right,1,0,36,36,52,1,5000,0,56000,89,0.10786,,
,,,,,,,,,,,,,,,,,,,,,,,002,000000,2020-11-12_08h35.51.096,tareaTDv3,2020.2.5,Win32,60,,,right,0,0,37,37,45,1,5000,0,15000,61,1.70266,,
,,,,,,,,,,,,,,,,,,,,,,,002,000000,2020-11-12_08h35.51.096,tareaTDv3,2020.2.5,Win32,60,,,right,0,0,38,38,7,1,10000,0,59000,9,0.352355,,
,,,,,,,,,,,,,,,,,,,,,,,002,000000,2020-11-12_08h35.51.096,tareaTDv3,2020.2.5,Win32,60,,,right,0,0,39,39,21,1,10000,0,40000,91,0.191915,,
,,,,,,,,,,,,,,,,,,,,,,,002,000000,2020-11-12_08h35.51.096,tareaTDv3,2020.2.5,Win32,60,,,right,0,0,40,40,0,1,10000,0,20000,5,0.41447,,
,,,,,,,,,,,,,,,,,,,,,,,002,000000,2020-11-12_08h35.51.096,tareaTDv3,2020.2.5,Win32,60,,,right,1,0,41,41,9,1,10000,0,151000,11,0.098265,,
,,,,,,,,,,,,,,,,,,,,,,,002,000000,2020-11-12_08h35.51.096,tareaTDv3,2020.2.5,Win32,60,,,right,1,0,42,42,81,1,25000,0,55000,90,3.152655,,
,,,,,,,,,,,,,,,,,,,,,,,002,000000,2020-11-12_08h35.51.096,tareaTDv3,2020.2.5,Win32,60,,,right,1,0,43,43,13,1,10000,0,111000,30,0.135135,,
,,,,,,,,,,,,,,,,,,,,,,,002,000000,2020-11-12_08h35.51.096,tareaTDv3,2020.2.5,Win32,60,,,right,1,0,44,44,75,1,25000,0,35000,60,3.577825,,
,,,,,,,,,,,,,,,,,,,,,,,002,000000,2020-11-12_08h35.51.096,tareaTDv3,2020.2.5,Win32,60,,,right,1,0,45,45,11,1,10000,0,39000,29,0.86985,,
,,,,,,,,,,,,,,,,,,,,,,,002,000000,2020-11-12_08h35.51.096,tareaTDv3,2020.2.5,Win32,60,,,right,1,0,46,46,46,1,5000,0,36000,61,0.341495,,
,,,,,,,,,,,,,,,,,,,,,,,002,000000,2020-11-12_08h35.51.096,tareaTDv3,2020.2.5,Win32,60,,,right,0,0,47,47,59,1,5000,0,151000,150,0.001425,,
,,,,,,,,,,,,,,,,,,,,,,,002,000000,2020-11-12_08h35.51.096,tareaTDv3,2020.2.5,Win32,60,,,right,1,0,48,48,29,1,10000,0,151000,151,0.27514,,
,,,,,,,,,,,,,,,,,,,,,,,002,000000,2020-11-12_08h35.51.096,tareaTDv3,2020.2.5,Win32,60,,,right,1,0,49,49,26,1,10000,0,39000,150,0.18192,,
,,,,,,,,,,,,,,,,,,,,,,,002,000000,2020-11-12_08h35.51.096,tareaTDv3,2020.2.5,Win32,60,,,right,0,0,50,50,20,1,10000,0,20000,90,0.121565,,
,,,,,,,,,,,,,,,,,,,,,,,002,000000,2020-11-12_08h35.51.096,tareaTDv3,2020.2.5,Win32,60,,,right,0,0,51,51,39,1,5000,0,149000,10,0.4856,,
,,,,,,,,,,,,,,,,,,,,,,,002,000000,2020-11-12_08h35.51.096,tareaTDv3,2020.2.5,Win32,60,,,right,1,0,52,52,10,1,10000,0,21000,31,2.785455,,
,,,,,,,,,,,,,,,,,,,,,,,002,000000,2020-11-12_08h35.51.096,tareaTDv3,2020.2.5,Win32,60,,,right,0,0,53,53,83,1,25000,0,125000,89,0.018235,,
,,,,,,,,,,,,,,,,,,,,,,,002,000000,2020-11-12_08h35.51.096,tareaTDv3,2020.2.5,Win32,60,,,right,1,0,54,54,82,1,25000,0,75000,90,0.402815,,
,,,,,,,,,,,,,,,,,,,,,,,002,000000,2020-11-12_08h35.51.096,tareaTDv3,2020.2.5,Win32,60,,,right,1,0,55,55,2,1,10000,0,61000,4,4.212185,,
,,,,,,,,,,,,,,,,,,,,,,,002,000000,2020-11-12_08h35.51.096,tareaTDv3,2020.2.5,Win32,60,,,,0,0,56,56,50,1,5000,0,15000,91,,,
,,,,,,,,,,,,,,,,,,,,,,,002,000000,2020-11-12_08h35.51.096,tareaTDv3,2020.2.5,Win32,60,,,right,1,0,57,57,68,1,25000,0,125000,9,1.041585,,
,,,,,,,,,,,,,,,,,,,,,,,002,000000,2020-11-12_08h35.51.096,tareaTDv3,2020.2.5,Win32,60,,,right,0,0,58,58,24,1,10000,0,149000,89,5.338885,,
,,,,,,,,,,,,,,,,,,,,,,,002,000000,2020-11-12_08h35.51.096,tareaTDv3,2020.2.5,Win32,60,,,right,1,0,59,59,73,1,25000,0,125000,31,0.51789,,
,,,,,,,,,,,,,,,,,,,,,,,002,000000,2020-11-12_08h35.51.096,tareaTDv3,2020.2.5,Win32,60,,,right,0,0,60,60,80,1,25000,0,35000,90,0.151625,,
,,,,,,,,,,,,,,,,,,,,,,,002,000000,2020-11-12_08h35.51.096,tareaTDv3,2020.2.5,Win32,60,,,right,1,0,61,61,74,1,25000,0,150000,29,2.362435,,
,,,,,,,,,,,,,,,,,,,,,,,002,000000,2020-11-12_08h35.51.096,tareaTDv3,2020.2.5,Win32,60,,,right,0,0,62,62,67,1,25000,0,75000,10,4.951355,,
,,,,,,,,,,,,,,,,,,,,,,,002,000000,2020-11-12_08h35.51.096,tareaTDv3,2020.2.5,Win32,60,,,right,0,0,63,63,42,1,5000,0,56000,29,0.18461,,
,,,,,,,,,,,,,,,,,,,,,,,002,000000,2020-11-12_08h35.51.096,tareaTDv3,2020.2.5,Win32,60,,,right,1,0,64,64,12,1,10000,0,60000,29,0.34636,,
,,,,,,,,,,,,,,,,,,,,,,,002,000000,2020-11-12_08h35.51.096,tareaTDv3,2020.2.5,Win32,60,,,right,0,0,65,65,15,1,10000,0,20000,59,0.19467,,
,,,,,,,,,,,,,,,,,,,,,,,002,000000,2020-11-12_08h35.51.096,tareaTDv3,2020.2.5,Win32,60,,,left,0,0,66,66,4,1,10000,0,150000,5,0.105205,,
,,,,,,,,,,,,,,,,,,,,,,,002,000000,2020-11-12_08h35.51.096,tareaTDv3,2020.2.5,Win32,60,,,right,1,0,67,67,5,1,10000,0,19000,11,0.239445,,
,,,,,,,,,,,,,,,,,,,,,,,002,000000,2020-11-12_08h35.51.096,tareaTDv3,2020.2.5,Win32,60,,,right,1,0,68,68,57,1,5000,0,55000,151,0.260695,,
,,,,,,,,,,,,,,,,,,,,,,,002,000000,2020-11-12_08h35.51.096,tareaTDv3,2020.2.5,Win32,60,,,right,1,0,69,69,65,1,25000,0,35000,11,0.27112,,
,,,,,,,,,,,,,,,,,,,,,,,002,000000,2020-11-12_08h35.51.096,tareaTDv3,2020.2.5,Win32,60,,,right,1,0,70,70,36,1,5000,0,36000,9,0.42877,,
,,,,,,,,,,,,,,,,,,,,,,,002,000000,2020-11-12_08h35.51.096,tareaTDv3,2020.2.5,Win32,60,,,right,0,0,71,71,17,1,10000,0,60000,60,0.441195,,
,,,,,,,,,,,,,,,,,,,,,,,002,000000,2020-11-12_08h35.51.096,tareaTDv3,2020.2.5,Win32,60,,,right,1,0,72,72,16,1,10000,0,39000,59,0.85965,,
,,,,,,,,,,,,,,,,,,,,,,,002,000000,2020-11-12_08h35.51.096,tareaTDv3,2020.2.5,Win32,60,,,right,1,0,73,73,32,1,5000,0,54000,5,0.04546,,
,,,,,,,,,,,,,,,,,,,,,,,002,000000,2020-11-12_08h35.51.096,tareaTDv3,2020.2.5,Win32,60,,,right,1,0,74,74,62,1,25000,0,75000,5,0.165105,,
,,,,,,,,,,,,,,,,,,,,,,,002,000000,2020-11-12_08h35.51.096,tareaTDv3,2020.2.5,Win32,60,,,right,1,0,75,75,23,1,10000,0,110000,90,0.07934,,
,,,,,,,,,,,,,,,,,,,,,,,002,000000,2020-11-12_08h35.51.096,tareaTDv3,2020.2.5,Win32,60,,,right,1,0,76,76,51,1,5000,0,35000,89,4.50285,,
,,,,,,,,,,,,,,,,,,,,,,,002,000000,2020-11-12_08h35.51.096,tareaTDv3,2020.2.5,Win32,60,,,right,0,0,77,77,84,1,25000,0,150000,89,0.505015,,
,,,,,,,,,,,,,,,,,,,,,,,002,000000,2020-11-12_08h35.51.096,tareaTDv3,2020.2.5,Win32,60,,,right,0,0,78,78,56,1,5000,0,35000,150,0.73724,,
,,,,,,,,,,,,,,,,,,,,,,,002,000000,2020-11-12_08h35.51.096,tareaTDv3,2020.2.5,Win32,60,,,right,1,0,79,79,19,1,10000,0,149000,61,5.42381,,
,,,,,,,,,,,,,,,,,,,,,,,002,000000,2020-11-12_08h35.51.096,tareaTDv3,2020.2.5,Win32,60,,,right,0,0,80,80,86,1,25000,0,55000,151,6.520445,,
,,,,,,,,,,,,,,,,,,,,,,,002,000000,2020-11-12_08h35.51.096,tareaTDv3,2020.2.5,Win32,60,,,right,0,0,81,81,63,1,25000,0,125000,4,6.85564,,
,,,,,,,,,,,,,,,,,,,,,,,002,000000,2020-11-12_08h35.51.096,tareaTDv3,2020.2.5,Win32,60,,,right,0,0,82,82,34,1,5000,0,151000,4,1.09848,,
,,,,,,,,,,,,,,,,,,,,,,,002,000000,2020-11-12_08h35.51.096,tareaTDv3,2020.2.5,Win32,60,,,right,1,0,83,83,69,1,25000,0,150000,9,8.841075,,
,,,,,,,,,,,,,,,,,,,,,,,002,000000,2020-11-12_08h35.51.096,tareaTDv3,2020.2.5,Win32,60,,,right,0,0,84,84,87,1,25000,0,75000,151,0.23746,,
,,,,,,,,,,,,,,,,,,,,,,,002,000000,2020-11-12_08h35.51.096,tareaTDv3,2020.2.5,Win32,60,,,right,1,0,85,85,3,1,10000,0,109000,5,0.11972,,
,,,,,,,,,,,,,,,,,,,,,,,002,000000,2020-11-12_08h35.51.096,tareaTDv3,2020.2.5,Win32,60,,,left,1,0,86,86,53,1,5000,0,104000,90,1.436195,,
,,,,,,,,,,,,,,,,,,,,,,,002,000000,2020-11-12_08h35.51.096,tareaTDv3,2020.2.5,Win32,60,,,right,0,0,87,87,55,1,5000,0,14000,149,0.10212,,
,,,,,,,,,,,,,,,,,,,,,,,002,000000,2020-11-12_08h35.51.096,tareaTDv3,2020.2.5,Win32,60,,,right,1,0,88,88,49,1,5000,0,149000,59,0.325395,,
,,,,,,,,,,,,,,,,,,,,,,,002,000000,2020-11-12_08h35.51.096,tareaTDv3,2020.2.5,Win32,60,,,right,1,0,89,89,37,1,5000,0,56000,9,0.71174,,
,,,,,,,,,,,,,,,,,,,,,,,002,000000,2020-11-12_08h35.51.096,tareaTDv3,2020.2.5,Win32,60,,,,,,,,,,,,,,,right,0.48939
