key1.keys,key1.rt,key2.keys,key2.rt,key2_2.keys,key2_2.rt,key2_3.keys,key2_3.rt,key3.keys,key3.rt,key4.keys,key4.rt,respP.keys,respP.corr,respP.rt,Practice.thisRepN,Practice.thisTrialN,Practice.thisN,Practice.thisIndex,Practice.ran,ssAmount,llAmount,llDelay,session,participant,date,expName,psychopyVersion,OS,frameRate,key5.keys,key5.rt,respT.keys,respT.corr,respT.rt,trials.thisRepN,trials.thisTrialN,trials.thisN,trials.thisIndex,trials.ran,ss_Amt,ss_Delay,ll_Amt,ll_Delay
space,1.526075,space,4.96473,space,5.05788,space,2.63525,space,1.97285,space,2.166575,left,1,5.990665,0,0,0,1,1,25000,35000,en 150 dias,001,01,2020-11-10_20h20.11.250,tareaTDv3,2020.2.5,MacIntel,60,,,,,,,,,,,,,,
,,,,,,,,,,,,left,1,0.48466,0,1,1,0,1,10000,109000,en 9 dias,001,01,2020-11-10_20h20.11.250,tareaTDv3,2020.2.5,MacIntel,60,,,,,,,,,,,,,,
,,,,,,,,,,,,right,0,1.750755,0,2,2,2,1,10000,19000,en 89 dias,001,01,2020-11-10_20h20.11.250,tareaTDv3,2020.2.5,MacIntel,60,,,,,,,,,,,,,,
,,,,,,,,,,,,,,,,,,,,,,,001,01,2020-11-10_20h20.11.250,tareaTDv3,2020.2.5,MacIntel,60,g,1.518005,left,1,0.801065,0,0,0,4,1,10000,0,150000,en 5 dias
,,,,,,,,,,,,,,,,,,,,,,,001,01,2020-11-10_20h20.11.250,tareaTDv3,2020.2.5,MacIntel,60,,,left,1,3.081875,0,1,1,59,1,5000,0,151000, en 150 dias
,,,,,,,,,,,,,,,,,,,,,,,001,01,2020-11-10_20h20.11.250,tareaTDv3,2020.2.5,MacIntel,60,,,left,1,2.008475,0,2,2,81,1,25000,0,55000,en 90 dias
,,,,,,,,,,,,,,,,,,,,,,,001,01,2020-11-10_20h20.11.250,tareaTDv3,2020.2.5,MacIntel,60,,,right,0,1.972145,0,3,3,16,1,10000,0,39000,en 59 dias
,,,,,,,,,,,,,,,,,,,,,,,001,01,2020-11-10_20h20.11.250,tareaTDv3,2020.2.5,MacIntel,60,,,right,1,0.267595,0,4,4,24,1,10000,0,149000, en 89 dias
,,,,,,,,,,,,,,,,,,,,,,,001,01,2020-11-10_20h20.11.250,tareaTDv3,2020.2.5,MacIntel,60,,,left,0,0.05013,0,5,5,76,1,25000,0,55000,en 60 dias
,,,,,,,,,,,,,,,,,,,,,,,001,01,2020-11-10_20h20.11.250,tareaTDv3,2020.2.5,MacIntel,60,,,left,1,0.03453,0,6,6,28,1,10000,0,109000,en 149 dias
,,,,,,,,,,,,,,,,,,,,,,,001,01,2020-11-10_20h20.11.250,tareaTDv3,2020.2.5,MacIntel,60,,,right,1,0.189895,0,7,7,7,1,10000,0,59000,en 9 dias
,,,,,,,,,,,,,,,,,,,,,,,001,01,2020-11-10_20h20.11.250,tareaTDv3,2020.2.5,MacIntel,60,,,right,1,0.534295,0,8,8,33,1,5000,0,104000,en 5 dias
,,,,,,,,,,,,,,,,,,,,,,,001,01,2020-11-10_20h20.11.250,tareaTDv3,2020.2.5,MacIntel,60,,,right,1,0.374255,0,9,9,88,1,25000,0,125000,en 149 dias
,,,,,,,,,,,,,,,,,,,,,,,001,01,2020-11-10_20h20.11.250,tareaTDv3,2020.2.5,MacIntel,60,,,left,0,0.90051,0,10,10,29,1,10000,0,151000,en 151 dias
,,,,,,,,,,,,,,,,,,,,,,,001,01,2020-11-10_20h20.11.250,tareaTDv3,2020.2.5,MacIntel,60,,,left,1,2.45974,0,11,11,78,1,25000,0,125000,en 59 dias
,,,,,,,,,,,,,,,,,,,,,,,001,01,2020-11-10_20h20.11.250,tareaTDv3,2020.2.5,MacIntel,60,,,right,1,3.97223,0,12,12,66,1,25000,0,55000,en 11 dias
,,,,,,,,,,,,,,,,,,,,,,,001,01,2020-11-10_20h20.11.250,tareaTDv3,2020.2.5,MacIntel,60,,,left,1,0.726925,0,13,13,67,1,25000,0,75000,en 10 dias
,,,,,,,,,,,,,,,,,,,,,,,001,01,2020-11-10_20h20.11.250,tareaTDv3,2020.2.5,MacIntel,60,,,right,0,0.641735,0,14,14,83,1,25000,0,125000,en 89 dias
,,,,,,,,,,,,,,,,,,,,,,,001,01,2020-11-10_20h20.11.250,tareaTDv3,2020.2.5,MacIntel,60,,,left,1,0.93425,0,15,15,60,1,25000,0,35000,en 5 dias
,,,,,,,,,,,,,,,,,,,,,,,001,01,2020-11-10_20h20.11.250,tareaTDv3,2020.2.5,MacIntel,60,,,left,1,0.167225,0,16,16,45,1,5000,0,15000,en 61 dias
,,,,,,,,,,,,,,,,,,,,,,,001,01,2020-11-10_20h20.11.250,tareaTDv3,2020.2.5,MacIntel,60,,,right,0,1.396185,0,17,17,77,1,25000,0,75000,en 59 dias
,,,,,,,,,,,,,,,,,,,,,,,001,01,2020-11-10_20h20.11.250,tareaTDv3,2020.2.5,MacIntel,60,,,right,1,0.274425,0,18,18,50,1,5000,0,15000,en 91 dias
,,,,,,,,,,,,,,,,,,,,,,,001,01,2020-11-10_20h20.11.250,tareaTDv3,2020.2.5,MacIntel,60,,,right,1,1.81713,0,19,19,82,1,25000,0,75000,en 90 dias
,,,,,,,,,,,,,,,,,,,,,,,001,01,2020-11-10_20h20.11.250,tareaTDv3,2020.2.5,MacIntel,60,,,left,1,2.417075,0,20,20,20,1,10000,0,20000,en 90 dias
,,,,,,,,,,,,,,,,,,,,,,,001,01,2020-11-10_20h20.11.250,tareaTDv3,2020.2.5,MacIntel,60,,,right,1,4.953315,0,21,21,39,1,5000,0,149000,en 10 dias
,,,,,,,,,,,,,,,,,,,,,,,001,01,2020-11-10_20h20.11.250,tareaTDv3,2020.2.5,MacIntel,60,,,right,0,0.750625,0,22,22,84,1,25000,0,150000,en 89 dias
,,,,,,,,,,,,,,,,,,,,,,,001,01,2020-11-10_20h20.11.250,tareaTDv3,2020.2.5,MacIntel,60,,,left,1,1.673005,0,23,23,63,1,25000,0,125000,en 4 dias
,,,,,,,,,,,,,,,,,,,,,,,001,01,2020-11-10_20h20.11.250,tareaTDv3,2020.2.5,MacIntel,60,,,right,0,0.950475,0,24,24,26,1,10000,0,39000,en 150 dias
,,,,,,,,,,,,,,,,,,,,,,,001,01,2020-11-10_20h20.11.250,tareaTDv3,2020.2.5,MacIntel,60,,,right,0,0.387855,0,25,25,27,1,10000,0,61000,en 150 dias
,,,,,,,,,,,,,,,,,,,,,,,001,01,2020-11-10_20h20.11.250,tareaTDv3,2020.2.5,MacIntel,60,,,left,1,1.283795,0,26,26,56,1,5000,0,35000, en 150 dias
,,,,,,,,,,,,,,,,,,,,,,,001,01,2020-11-10_20h20.11.250,tareaTDv3,2020.2.5,MacIntel,60,,,right,1,0.77423,0,27,27,6,1,10000,0,40000,en 10 dias
,,,,,,,,,,,,,,,,,,,,,,,001,01,2020-11-10_20h20.11.250,tareaTDv3,2020.2.5,MacIntel,60,,,right,0,4.690585,0,28,28,80,1,25000,0,35000,en 90 dias
,,,,,,,,,,,,,,,,,,,,,,,001,01,2020-11-10_20h20.11.250,tareaTDv3,2020.2.5,MacIntel,60,,,right,1,2.99935,0,29,29,68,1,25000,0,125000,en 9 dias
,,,,,,,,,,,,,,,,,,,,,,,001,01,2020-11-10_20h20.11.250,tareaTDv3,2020.2.5,MacIntel,60,,,left,1,0.473515,0,30,30,22,1,10000,0,61000,en 89 dias
,,,,,,,,,,,,,,,,,,,,,,,001,01,2020-11-10_20h20.11.250,tareaTDv3,2020.2.5,MacIntel,60,,,right,1,0.247805,0,31,31,11,1,10000,0,39000,en 29 dias
,,,,,,,,,,,,,,,,,,,,,,,001,01,2020-11-10_20h20.11.250,tareaTDv3,2020.2.5,MacIntel,60,,,left,1,1.52362,0,32,32,71,1,25000,0,55000,en 30 dias
,,,,,,,,,,,,,,,,,,,,,,,001,01,2020-11-10_20h20.11.250,tareaTDv3,2020.2.5,MacIntel,60,,,left,1,1.152705,0,33,33,43,1,5000,0,106000, en 29 dias
,,,,,,,,,,,,,,,,,,,,,,,001,01,2020-11-10_20h20.11.250,tareaTDv3,2020.2.5,MacIntel,60,,,left,1,0.8525,0,34,34,3,1,10000,0,109000,en 5 dias
,,,,,,,,,,,,,,,,,,,,,,,001,01,2020-11-10_20h20.11.250,tareaTDv3,2020.2.5,MacIntel,60,,,left,1,0.283975,0,35,35,9,1,10000,0,151000,en 11 dias
,,,,,,,,,,,,,,,,,,,,,,,001,01,2020-11-10_20h20.11.250,tareaTDv3,2020.2.5,MacIntel,60,,,right,0,1.98008,0,36,36,17,1,10000,0,60000,en 60 dias
,,,,,,,,,,,,,,,,,,,,,,,001,01,2020-11-10_20h20.11.250,tareaTDv3,2020.2.5,MacIntel,60,,,left,1,0.201795,0,37,37,32,1,5000,0,54000,en 5 dias
,,,,,,,,,,,,,,,,,,,,,,,001,01,2020-11-10_20h20.11.250,tareaTDv3,2020.2.5,MacIntel,60,,,left,1,0.636985,0,38,38,53,1,5000,0,104000,en 90 dias
,,,,,,,,,,,,,,,,,,,,,,,001,01,2020-11-10_20h20.11.250,tareaTDv3,2020.2.5,MacIntel,60,,,right,1,0.834055,0,39,39,44,1,5000,0,150000,en 30 dias
,,,,,,,,,,,,,,,,,,,,,,,001,01,2020-11-10_20h20.11.250,tareaTDv3,2020.2.5,MacIntel,60,,,left,1,0.416705,0,40,40,87,1,25000,0,75000,en 151 dias
,,,,,,,,,,,,,,,,,,,,,,,001,01,2020-11-10_20h20.11.250,tareaTDv3,2020.2.5,MacIntel,60,,,right,1,0.61752,0,41,41,54,1,5000,0,150000,en 90 dias
,,,,,,,,,,,,,,,,,,,,,,,001,01,2020-11-10_20h20.11.250,tareaTDv3,2020.2.5,MacIntel,60,,,left,1,0.66629,0,42,42,79,1,25000,0,150000,en 61 dias
,,,,,,,,,,,,,,,,,,,,,,,001,01,2020-11-10_20h20.11.250,tareaTDv3,2020.2.5,MacIntel,60,,,left,1,0.834325,0,43,43,75,1,25000,0,35000,en 60 dias
,,,,,,,,,,,,,,,,,,,,,,,001,01,2020-11-10_20h20.11.250,tareaTDv3,2020.2.5,MacIntel,60,,,left,0,0.426545,0,44,44,25,1,10000,0,10000,en 150 dias
,,,,,,,,,,,,,,,,,,,,,,,001,01,2020-11-10_20h20.11.250,tareaTDv3,2020.2.5,MacIntel,60,,,right,1,1.73489,0,45,45,1,1,10000,0,39000,en 6 dias
,,,,,,,,,,,,,,,,,,,,,,,001,01,2020-11-10_20h20.11.250,tareaTDv3,2020.2.5,MacIntel,60,,,left,0,0.317,0,46,46,12,1,10000,0,60000,en 29 dias
,,,,,,,,,,,,,,,,,,,,,,,001,01,2020-11-10_20h20.11.250,tareaTDv3,2020.2.5,MacIntel,60,,,left,0,0.300615,0,47,47,8,1,10000,0,111000,en 10 dias
,,,,,,,,,,,,,,,,,,,,,,,001,01,2020-11-10_20h20.11.250,tareaTDv3,2020.2.5,MacIntel,60,,,left,0,0.02021,0,48,48,72,1,25000,0,75000,en 31 dias
,,,,,,,,,,,,,,,,,,,,,,,001,01,2020-11-10_20h20.11.250,tareaTDv3,2020.2.5,MacIntel,60,,,right,1,0.3229,0,49,49,10,1,10000,0,21000,en 31 dias
,,,,,,,,,,,,,,,,,,,,,,,001,01,2020-11-10_20h20.11.250,tareaTDv3,2020.2.5,MacIntel,60,,,right,1,0.90027,0,50,50,19,1,10000,0,149000,en 61 dias
,,,,,,,,,,,,,,,,,,,,,,,001,01,2020-11-10_20h20.11.250,tareaTDv3,2020.2.5,MacIntel,60,,,left,1,0.50035,0,51,51,51,1,5000,0,35000,en 89 dias
,,,,,,,,,,,,,,,,,,,,,,,001,01,2020-11-10_20h20.11.250,tareaTDv3,2020.2.5,MacIntel,60,,,left,1,0.407495,0,52,52,15,1,10000,0,20000,en 59 dias
,,,,,,,,,,,,,,,,,,,,,,,001,01,2020-11-10_20h20.11.250,tareaTDv3,2020.2.5,MacIntel,60,,,left,1,0.240775,0,53,53,55,1,5000,0,14000,en 149 dias
,,,,,,,,,,,,,,,,,,,,,,,001,01,2020-11-10_20h20.11.250,tareaTDv3,2020.2.5,MacIntel,60,,,left,1,0.090535,0,54,54,52,1,5000,0,56000, en 89 dias
,,,,,,,,,,,,,,,,,,,,,,,001,01,2020-11-10_20h20.11.250,tareaTDv3,2020.2.5,MacIntel,60,,,right,1,1.309505,0,55,55,65,1,25000,0,35000,en 11 dias
,,,,,,,,,,,,,,,,,,,,,,,001,01,2020-11-10_20h20.11.250,tareaTDv3,2020.2.5,MacIntel,60,,,right,1,0.39978,0,56,56,70,1,25000,0,35000,en 30 dias
,,,,,,,,,,,,,,,,,,,,,,,001,01,2020-11-10_20h20.11.250,tareaTDv3,2020.2.5,MacIntel,60,,,right,1,0.252865,0,57,57,38,1,5000,0,104000,en 10 dias
,,,,,,,,,,,,,,,,,,,,,,,001,01,2020-11-10_20h20.11.250,tareaTDv3,2020.2.5,MacIntel,60,,,left,1,0.79437,0,58,58,37,1,5000,0,56000,en 9 dias
,,,,,,,,,,,,,,,,,,,,,,,001,01,2020-11-10_20h20.11.250,tareaTDv3,2020.2.5,MacIntel,60,,,right,1,0.62183,0,59,59,35,1,5000,0,15000,en 11 dias
,,,,,,,,,,,,,,,,,,,,,,,001,01,2020-11-10_20h20.11.250,tareaTDv3,2020.2.5,MacIntel,60,,,left,1,0.334345,0,60,60,34,1,5000,0,151000,en 4 dias
,,,,,,,,,,,,,,,,,,,,,,,001,01,2020-11-10_20h20.11.250,tareaTDv3,2020.2.5,MacIntel,60,,,left,1,0.167015,0,61,61,58,1,5000,0,106000,en 152 dias
,,,,,,,,,,,,,,,,,,,,,,,001,01,2020-11-10_20h20.11.250,tareaTDv3,2020.2.5,MacIntel,60,,,right,1,0.183595,0,62,62,62,1,25000,0,75000,en 5 dias
,,,,,,,,,,,,,,,,,,,,,,,001,01,2020-11-10_20h20.11.250,tareaTDv3,2020.2.5,MacIntel,60,,,left,1,1.10003,0,63,63,31,1,5000,0,35000,en 6 dias
,,,,,,,,,,,,,,,,,,,,,,,001,01,2020-11-10_20h20.11.250,tareaTDv3,2020.2.5,MacIntel,60,,,right,1,0.467275,0,64,64,41,1,5000,0,35000,en 31 dias
,,,,,,,,,,,,,,,,,,,,,,,001,01,2020-11-10_20h20.11.250,tareaTDv3,2020.2.5,MacIntel,60,,,right,0,3.384935,0,65,65,57,1,5000,0,55000,en 151 dias
,,,,,,,,,,,,,,,,,,,,,,,001,01,2020-11-10_20h20.11.250,tareaTDv3,2020.2.5,MacIntel,60,,,right,0,0.301695,0,66,66,49,1,5000,0,149000, en 59 dias
,,,,,,,,,,,,,,,,,,,,,,,001,01,2020-11-10_20h20.11.250,tareaTDv3,2020.2.5,MacIntel,60,,,left,0,2.15393,0,67,67,86,1,25000,0,55000,en 151 dias
,,,,,,,,,,,,,,,,,,,,,,,001,01,2020-11-10_20h20.11.250,tareaTDv3,2020.2.5,MacIntel,60,,,left,0,0.616755,0,68,68,85,1,25000,0,35000,en 150 dias
,,,,,,,,,,,,,,,,,,,,,,,001,01,2020-11-10_20h20.11.250,tareaTDv3,2020.2.5,MacIntel,60,,,left,1,0.05456,0,69,69,73,1,25000,0,125000,en 31 dias
,,,,,,,,,,,,,,,,,,,,,,,001,01,2020-11-10_20h20.11.250,tareaTDv3,2020.2.5,MacIntel,60,,,right,1,1.11992,0,70,70,69,1,25000,0,150000,en 9 dias
,,,,,,,,,,,,,,,,,,,,,,,001,01,2020-11-10_20h20.11.250,tareaTDv3,2020.2.5,MacIntel,60,,,left,0,0.086035,0,71,71,47,1,5000,0,56000,en 60 dias
,,,,,,,,,,,,,,,,,,,,,,,001,01,2020-11-10_20h20.11.250,tareaTDv3,2020.2.5,MacIntel,60,,,left,0,0.18441,0,72,72,61,1,25000,0,55000,en 6 dias
,,,,,,,,,,,,,,,,,,,,,,,001,01,2020-11-10_20h20.11.250,tareaTDv3,2020.2.5,MacIntel,60,,,left,1,0.1851,0,73,73,46,1,5000,0,36000,en 61 dias
,,,,,,,,,,,,,,,,,,,,,,,001,01,2020-11-10_20h20.11.250,tareaTDv3,2020.2.5,MacIntel,60,,,right,0,0.082895,0,74,74,64,1,25000,0,150000,en 4 dias
,,,,,,,,,,,,,,,,,,,,,,,001,01,2020-11-10_20h20.11.250,tareaTDv3,2020.2.5,MacIntel,60,,,right,1,0.49229,0,75,75,40,1,5000,0,14000,en 31 dias
,,,,,,,,,,,,,,,,,,,,,,,001,01,2020-11-10_20h20.11.250,tareaTDv3,2020.2.5,MacIntel,60,,,right,1,0.07183,0,76,76,21,1,10000,0,40000,en 91 dias
,,,,,,,,,,,,,,,,,,,,,,,001,01,2020-11-10_20h20.11.250,tareaTDv3,2020.2.5,MacIntel,60,,,right,1,0.50107,0,77,77,5,1,10000,0,19000,en 11 dias
,,,,,,,,,,,,,,,,,,,,,,,001,01,2020-11-10_20h20.11.250,tareaTDv3,2020.2.5,MacIntel,60,,,left,0,0.84484,0,78,78,14,1,10000,0,150000,en 30 dias
,,,,,,,,,,,,,,,,,,,,,,,001,01,2020-11-10_20h20.11.250,tareaTDv3,2020.2.5,MacIntel,60,,,right,1,1.00422,0,79,79,23,1,10000,0,110000, en 90 dias
,,,,,,,,,,,,,,,,,,,,,,,001,01,2020-11-10_20h20.11.250,tareaTDv3,2020.2.5,MacIntel,60,,,left,1,0.333635,0,80,80,42,1,5000,0,56000,en 29 dias
,,,,,,,,,,,,,,,,,,,,,,,001,01,2020-11-10_20h20.11.250,tareaTDv3,2020.2.5,MacIntel,60,,,left,1,0.20035,0,81,81,36,1,5000,0,36000,en 9 dias
,,,,,,,,,,,,,,,,,,,,,,,001,01,2020-11-10_20h20.11.250,tareaTDv3,2020.2.5,MacIntel,60,,,right,1,0.483935,0,82,82,2,1,10000,0,61000,en 4 dias
,,,,,,,,,,,,,,,,,,,,,,,001,01,2020-11-10_20h20.11.250,tareaTDv3,2020.2.5,MacIntel,60,,,left,1,16.391425,0,83,83,74,1,25000,0,150000,en 29 dias
,,,,,,,,,,,,,,,,,,,,,,,001,01,2020-11-10_20h20.11.250,tareaTDv3,2020.2.5,MacIntel,60,,,left,1,3.338485,0,84,84,30,1,5000,0,16000,en 4 dias
,,,,,,,,,,,,,,,,,,,,,,,001,01,2020-11-10_20h20.11.250,tareaTDv3,2020.2.5,MacIntel,60,,,right,1,0.26715,0,85,85,18,1,10000,0,110000,en 60 dias
,,,,,,,,,,,,,,,,,,,,,,,001,01,2020-11-10_20h20.11.250,tareaTDv3,2020.2.5,MacIntel,60,,,left,1,0.467405,0,86,86,13,1,10000,0,111000,en 30 dias
,,,,,,,,,,,,,,,,,,,,,,,001,01,2020-11-10_20h20.11.250,tareaTDv3,2020.2.5,MacIntel,60,,,left,1,0.17172,0,87,87,89,1,25000,0,150000,en 150 dias
,,,,,,,,,,,,,,,,,,,,,,,001,01,2020-11-10_20h20.11.250,tareaTDv3,2020.2.5,MacIntel,60,,,right,1,0.39022,0,88,88,48,1,5000,0,105000,en 60 dias
,,,,,,,,,,,,,,,,,,,,,,,001,01,2020-11-10_20h20.11.250,tareaTDv3,2020.2.5,MacIntel,60,,,left,1,0.26671,0,89,89,0,1,10000,0,20000,en 5 dias
