key1.keys,key1.rt,key2.keys,key2.rt,key2_2.keys,key2_2.rt,key2_3.keys,key2_3.rt,key3.keys,key3.rt,key4.keys,key4.rt,respP.keys,respP.corr,Practice.thisRepN,Practice.thisTrialN,Practice.thisN,Practice.thisIndex,Practice.ran,ssAmount,llAmount,llDelay,session,participant,date,expName,psychopyVersion,OS,frameRate,respP.rt,key5.keys,key5.rt,respT.keys,respT.corr,respT.rt,trials.thisRepN,trials.thisTrialN,trials.thisN,trials.thisIndex,trials.ran,ss_Amt,ss_Delay,ll_Amt,ll_Delay
space,6.00152,space,16.558775,space,30.525495,space,18.513995,right,19.6904,space,5.61448,,0,0,0,0,0,1,10000,109000,9,002,112,2020-11-13_09h49.59.925,tareaTDv3,2020.2.5,Win32,60,,,,,,,,,,,,,,,
,,,,,,,,,,,,right,0,0,1,1,2,1,10000,19000,89,002,112,2020-11-13_09h49.59.925,tareaTDv3,2020.2.5,Win32,60,16.868385,,,,,,,,,,,,,,
,,,,,,,,,,,,left,0,0,2,2,1,1,25000,35000,150,002,112,2020-11-13_09h49.59.925,tareaTDv3,2020.2.5,Win32,60,8.39932,,,,,,,,,,,,,,
,,,,,,,,,,,,,,,,,,,,,,002,112,2020-11-13_09h49.59.925,tareaTDv3,2020.2.5,Win32,60,,g,6.691525,left,1,7.75444,0,0,0,57,1,5000,0,55000,151
,,,,,,,,,,,,,,,,,,,,,,002,112,2020-11-13_09h49.59.925,tareaTDv3,2020.2.5,Win32,60,,,,right,1,4.7483,0,1,1,78,1,25000,0,125000,59
,,,,,,,,,,,,,,,,,,,,,,002,112,2020-11-13_09h49.59.925,tareaTDv3,2020.2.5,Win32,60,,,,left,0,4.311635,0,2,2,89,1,25000,0,150000,150
,,,,,,,,,,,,,,,,,,,,,,002,112,2020-11-13_09h49.59.925,tareaTDv3,2020.2.5,Win32,60,,,,right,1,2.47646,0,3,3,53,1,5000,0,104000,90
,,,,,,,,,,,,,,,,,,,,,,002,112,2020-11-13_09h49.59.925,tareaTDv3,2020.2.5,Win32,60,,,,left,0,3.682585,0,4,4,71,1,25000,0,55000,30
,,,,,,,,,,,,,,,,,,,,,,002,112,2020-11-13_09h49.59.925,tareaTDv3,2020.2.5,Win32,60,,,,right,1,10.78197,0,5,5,27,1,10000,0,61000,150
,,,,,,,,,,,,,,,,,,,,,,002,112,2020-11-13_09h49.59.925,tareaTDv3,2020.2.5,Win32,60,,,,left,0,10.661795,0,6,6,22,1,10000,0,61000,89
,,,,,,,,,,,,,,,,,,,,,,002,112,2020-11-13_09h49.59.925,tareaTDv3,2020.2.5,Win32,60,,,,left,1,4.64844,0,7,7,28,1,10000,0,109000,149
,,,,,,,,,,,,,,,,,,,,,,002,112,2020-11-13_09h49.59.925,tareaTDv3,2020.2.5,Win32,60,,,,left,0,8.014025,0,8,8,86,1,25000,0,55000,151
,,,,,,,,,,,,,,,,,,,,,,002,112,2020-11-13_09h49.59.925,tareaTDv3,2020.2.5,Win32,60,,,,left,1,4.556115,0,9,9,77,1,25000,0,75000,59
,,,,,,,,,,,,,,,,,,,,,,002,112,2020-11-13_09h49.59.925,tareaTDv3,2020.2.5,Win32,60,,,,,0,,0,10,10,46,1,5000,0,36000,61
,,,,,,,,,,,,,,,,,,,,,,002,112,2020-11-13_09h49.59.925,tareaTDv3,2020.2.5,Win32,60,,,,left,1,3.53465,0,11,11,31,1,5000,0,35000,6
,,,,,,,,,,,,,,,,,,,,,,002,112,2020-11-13_09h49.59.925,tareaTDv3,2020.2.5,Win32,60,,,,right,0,2.550565,0,12,12,70,1,25000,0,35000,30
,,,,,,,,,,,,,,,,,,,,,,002,112,2020-11-13_09h49.59.925,tareaTDv3,2020.2.5,Win32,60,,,,left,1,3.55298,0,13,13,33,1,5000,0,104000,5
,,,,,,,,,,,,,,,,,,,,,,002,112,2020-11-13_09h49.59.925,tareaTDv3,2020.2.5,Win32,60,,,,left,0,1.502435,0,14,14,85,1,25000,0,35000,150
,,,,,,,,,,,,,,,,,,,,,,002,112,2020-11-13_09h49.59.925,tareaTDv3,2020.2.5,Win32,60,,,,left,0,1.40744,0,15,15,15,1,10000,0,20000,59
,,,,,,,,,,,,,,,,,,,,,,002,112,2020-11-13_09h49.59.925,tareaTDv3,2020.2.5,Win32,60,,,,right,0,8.283035,0,16,16,51,1,5000,0,35000,89
,,,,,,,,,,,,,,,,,,,,,,002,112,2020-11-13_09h49.59.925,tareaTDv3,2020.2.5,Win32,60,,,,left,1,11.733535,0,17,17,36,1,5000,0,36000,9
,,,,,,,,,,,,,,,,,,,,,,002,112,2020-11-13_09h49.59.925,tareaTDv3,2020.2.5,Win32,60,,,,left,1,2.4499,0,18,18,59,1,5000,0,151000,150
,,,,,,,,,,,,,,,,,,,,,,002,112,2020-11-13_09h49.59.925,tareaTDv3,2020.2.5,Win32,60,,,,left,1,9.08506,0,19,19,2,1,10000,0,61000,4
,,,,,,,,,,,,,,,,,,,,,,002,112,2020-11-13_09h49.59.925,tareaTDv3,2020.2.5,Win32,60,,,,right,0,16.218455,0,20,20,80,1,25000,0,35000,90
,,,,,,,,,,,,,,,,,,,,,,002,112,2020-11-13_09h49.59.925,tareaTDv3,2020.2.5,Win32,60,,,,right,1,1.321055,0,21,21,48,1,5000,0,105000,60
,,,,,,,,,,,,,,,,,,,,,,002,112,2020-11-13_09h49.59.925,tareaTDv3,2020.2.5,Win32,60,,,,left,1,5.081805,0,22,22,11,1,10000,0,39000,29
,,,,,,,,,,,,,,,,,,,,,,002,112,2020-11-13_09h49.59.925,tareaTDv3,2020.2.5,Win32,60,,,,right,1,1.175035,0,23,23,38,1,5000,0,104000,10
,,,,,,,,,,,,,,,,,,,,,,002,112,2020-11-13_09h49.59.925,tareaTDv3,2020.2.5,Win32,60,,,,left,1,4.22106,0,24,24,60,1,25000,0,35000,5
,,,,,,,,,,,,,,,,,,,,,,002,112,2020-11-13_09h49.59.925,tareaTDv3,2020.2.5,Win32,60,,,,left,1,6.24777,0,25,25,8,1,10000,0,111000,10
,,,,,,,,,,,,,,,,,,,,,,002,112,2020-11-13_09h49.59.925,tareaTDv3,2020.2.5,Win32,60,,,,left,1,1.52485,0,26,26,79,1,25000,0,150000,61
,,,,,,,,,,,,,,,,,,,,,,002,112,2020-11-13_09h49.59.925,tareaTDv3,2020.2.5,Win32,60,,,,right,0,16.564465,0,27,27,40,1,5000,0,14000,31
,,,,,,,,,,,,,,,,,,,,,,002,112,2020-11-13_09h49.59.925,tareaTDv3,2020.2.5,Win32,60,,,,right,1,2.23313,0,28,28,62,1,25000,0,75000,5
,,,,,,,,,,,,,,,,,,,,,,002,112,2020-11-13_09h49.59.925,tareaTDv3,2020.2.5,Win32,60,,,,right,1,2.03274,0,29,29,14,1,10000,0,150000,30
,,,,,,,,,,,,,,,,,,,,,,002,112,2020-11-13_09h49.59.925,tareaTDv3,2020.2.5,Win32,60,,,,right,1,2.58316,0,30,30,19,1,10000,0,149000,61
,,,,,,,,,,,,,,,,,,,,,,002,112,2020-11-13_09h49.59.925,tareaTDv3,2020.2.5,Win32,60,,,,left,1,4.76705,0,31,31,3,1,10000,0,109000,5
,,,,,,,,,,,,,,,,,,,,,,002,112,2020-11-13_09h49.59.925,tareaTDv3,2020.2.5,Win32,60,,,,right,1,1.57076,0,32,32,32,1,5000,0,54000,5
,,,,,,,,,,,,,,,,,,,,,,002,112,2020-11-13_09h49.59.925,tareaTDv3,2020.2.5,Win32,60,,,,left,1,1.018105,0,33,33,43,1,5000,0,106000,29
,,,,,,,,,,,,,,,,,,,,,,002,112,2020-11-13_09h49.59.925,tareaTDv3,2020.2.5,Win32,60,,,,right,0,2.02826,0,34,34,12,1,10000,0,60000,29
,,,,,,,,,,,,,,,,,,,,,,002,112,2020-11-13_09h49.59.925,tareaTDv3,2020.2.5,Win32,60,,,,right,1,1.06704,0,35,35,72,1,25000,0,75000,31
,,,,,,,,,,,,,,,,,,,,,,002,112,2020-11-13_09h49.59.925,tareaTDv3,2020.2.5,Win32,60,,,,right,1,2.79949,0,36,36,34,1,5000,0,151000,4
,,,,,,,,,,,,,,,,,,,,,,002,112,2020-11-13_09h49.59.925,tareaTDv3,2020.2.5,Win32,60,,,,right,0,5.880935,0,37,37,67,1,25000,0,75000,10
,,,,,,,,,,,,,,,,,,,,,,002,112,2020-11-13_09h49.59.925,tareaTDv3,2020.2.5,Win32,60,,,,left,0,1.6395,0,38,38,81,1,25000,0,55000,90
,,,,,,,,,,,,,,,,,,,,,,002,112,2020-11-13_09h49.59.925,tareaTDv3,2020.2.5,Win32,60,,,,left,1,5.048875,0,39,39,6,1,10000,0,40000,10
,,,,,,,,,,,,,,,,,,,,,,002,112,2020-11-13_09h49.59.925,tareaTDv3,2020.2.5,Win32,60,,,,right,1,11.204485,0,40,40,64,1,25000,0,150000,4
,,,,,,,,,,,,,,,,,,,,,,002,112,2020-11-13_09h49.59.925,tareaTDv3,2020.2.5,Win32,60,,,,right,0,2.157205,0,41,41,25,1,10000,0,10000,150
,,,,,,,,,,,,,,,,,,,,,,002,112,2020-11-13_09h49.59.925,tareaTDv3,2020.2.5,Win32,60,,,,right,1,3.886525,0,42,42,9,1,10000,0,151000,11
,,,,,,,,,,,,,,,,,,,,,,002,112,2020-11-13_09h49.59.925,tareaTDv3,2020.2.5,Win32,60,,,,right,0,7.475865,0,43,43,29,1,10000,0,151000,151
,,,,,,,,,,,,,,,,,,,,,,002,112,2020-11-13_09h49.59.925,tareaTDv3,2020.2.5,Win32,60,,,,right,0,2.4334,0,44,44,66,1,25000,0,55000,11
,,,,,,,,,,,,,,,,,,,,,,002,112,2020-11-13_09h49.59.925,tareaTDv3,2020.2.5,Win32,60,,,,left,0,2.721795,0,45,45,52,1,5000,0,56000,89
,,,,,,,,,,,,,,,,,,,,,,002,112,2020-11-13_09h49.59.925,tareaTDv3,2020.2.5,Win32,60,,,,right,0,5.20252,0,46,46,5,1,10000,0,19000,11
,,,,,,,,,,,,,,,,,,,,,,002,112,2020-11-13_09h49.59.925,tareaTDv3,2020.2.5,Win32,60,,,,left,1,4.279185,0,47,47,44,1,5000,0,150000,30
,,,,,,,,,,,,,,,,,,,,,,002,112,2020-11-13_09h49.59.925,tareaTDv3,2020.2.5,Win32,60,,,,right,1,1.561015,0,48,48,39,1,5000,0,149000,10
,,,,,,,,,,,,,,,,,,,,,,002,112,2020-11-13_09h49.59.925,tareaTDv3,2020.2.5,Win32,60,,,,left,0,1.084025,0,49,49,21,1,10000,0,40000,91
,,,,,,,,,,,,,,,,,,,,,,002,112,2020-11-13_09h49.59.925,tareaTDv3,2020.2.5,Win32,60,,,,right,0,3.39955,0,50,50,42,1,5000,0,56000,29
,,,,,,,,,,,,,,,,,,,,,,002,112,2020-11-13_09h49.59.925,tareaTDv3,2020.2.5,Win32,60,,,,right,0,1.086695,0,51,51,16,1,10000,0,39000,59
,,,,,,,,,,,,,,,,,,,,,,002,112,2020-11-13_09h49.59.925,tareaTDv3,2020.2.5,Win32,60,,,,right,1,2.23961,0,52,52,63,1,25000,0,125000,4
,,,,,,,,,,,,,,,,,,,,,,002,112,2020-11-13_09h49.59.925,tareaTDv3,2020.2.5,Win32,60,,,,right,0,3.118505,0,53,53,54,1,5000,0,150000,90
,,,,,,,,,,,,,,,,,,,,,,002,112,2020-11-13_09h49.59.925,tareaTDv3,2020.2.5,Win32,60,,,,left,0,3.150955,0,54,54,75,1,25000,0,35000,60
,,,,,,,,,,,,,,,,,,,,,,002,112,2020-11-13_09h49.59.925,tareaTDv3,2020.2.5,Win32,60,,,,left,0,4.720855,0,55,55,84,1,25000,0,150000,89
,,,,,,,,,,,,,,,,,,,,,,002,112,2020-11-13_09h49.59.925,tareaTDv3,2020.2.5,Win32,60,,,,left,0,10.54798,0,56,56,47,1,5000,0,56000,60
,,,,,,,,,,,,,,,,,,,,,,002,112,2020-11-13_09h49.59.925,tareaTDv3,2020.2.5,Win32,60,,,,left,1,1.725285,0,57,57,37,1,5000,0,56000,9
,,,,,,,,,,,,,,,,,,,,,,002,112,2020-11-13_09h49.59.925,tareaTDv3,2020.2.5,Win32,60,,,,right,0,6.70715,0,58,58,35,1,5000,0,15000,11
,,,,,,,,,,,,,,,,,,,,,,002,112,2020-11-13_09h49.59.925,tareaTDv3,2020.2.5,Win32,60,,,,right,0,2.367055,0,59,59,24,1,10000,0,149000,89
,,,,,,,,,,,,,,,,,,,,,,002,112,2020-11-13_09h49.59.925,tareaTDv3,2020.2.5,Win32,60,,,,right,0,6.281205,0,60,60,41,1,5000,0,35000,31
,,,,,,,,,,,,,,,,,,,,,,002,112,2020-11-13_09h49.59.925,tareaTDv3,2020.2.5,Win32,60,,,,left,1,0.926285,0,61,61,73,1,25000,0,125000,31
,,,,,,,,,,,,,,,,,,,,,,002,112,2020-11-13_09h49.59.925,tareaTDv3,2020.2.5,Win32,60,,,,right,1,1.28442,0,62,62,7,1,10000,0,59000,9
,,,,,,,,,,,,,,,,,,,,,,002,112,2020-11-13_09h49.59.925,tareaTDv3,2020.2.5,Win32,60,,,,left,0,1.009955,0,63,63,26,1,10000,0,39000,150
,,,,,,,,,,,,,,,,,,,,,,002,112,2020-11-13_09h49.59.925,tareaTDv3,2020.2.5,Win32,60,,,,right,1,1.594625,0,64,64,61,1,25000,0,55000,6
,,,,,,,,,,,,,,,,,,,,,,002,112,2020-11-13_09h49.59.925,tareaTDv3,2020.2.5,Win32,60,,,,right,0,2.101665,0,65,65,23,1,10000,0,110000,90
,,,,,,,,,,,,,,,,,,,,,,002,112,2020-11-13_09h49.59.925,tareaTDv3,2020.2.5,Win32,60,,,,left,0,0.933955,0,66,66,10,1,10000,0,21000,31
,,,,,,,,,,,,,,,,,,,,,,002,112,2020-11-13_09h49.59.925,tareaTDv3,2020.2.5,Win32,60,,,,left,0,2.940245,0,67,67,74,1,25000,0,150000,29
,,,,,,,,,,,,,,,,,,,,,,002,112,2020-11-13_09h49.59.925,tareaTDv3,2020.2.5,Win32,60,,,,left,1,2.258805,0,68,68,13,1,10000,0,111000,30
,,,,,,,,,,,,,,,,,,,,,,002,112,2020-11-13_09h49.59.925,tareaTDv3,2020.2.5,Win32,60,,,,left,1,1.05711,0,69,69,1,1,10000,0,39000,6
,,,,,,,,,,,,,,,,,,,,,,002,112,2020-11-13_09h49.59.925,tareaTDv3,2020.2.5,Win32,60,,,,left,0,10.628895,0,70,70,82,1,25000,0,75000,90
,,,,,,,,,,,,,,,,,,,,,,002,112,2020-11-13_09h49.59.925,tareaTDv3,2020.2.5,Win32,60,,,,left,1,0.594855,0,71,71,30,1,5000,0,16000,4
,,,,,,,,,,,,,,,,,,,,,,002,112,2020-11-13_09h49.59.925,tareaTDv3,2020.2.5,Win32,60,,,,right,1,1.611205,0,72,72,68,1,25000,0,125000,9
,,,,,,,,,,,,,,,,,,,,,,002,112,2020-11-13_09h49.59.925,tareaTDv3,2020.2.5,Win32,60,,,,left,0,1.30224,0,73,73,20,1,10000,0,20000,90
,,,,,,,,,,,,,,,,,,,,,,002,112,2020-11-13_09h49.59.925,tareaTDv3,2020.2.5,Win32,60,,,,right,0,3.21853,0,74,74,0,1,10000,0,20000,5
,,,,,,,,,,,,,,,,,,,,,,002,112,2020-11-13_09h49.59.925,tareaTDv3,2020.2.5,Win32,60,,,,right,0,3.074245,0,75,75,50,1,5000,0,15000,91
,,,,,,,,,,,,,,,,,,,,,,002,112,2020-11-13_09h49.59.925,tareaTDv3,2020.2.5,Win32,60,,,,right,1,1.50439,0,76,76,4,1,10000,0,150000,5
,,,,,,,,,,,,,,,,,,,,,,002,112,2020-11-13_09h49.59.925,tareaTDv3,2020.2.5,Win32,60,,,,right,0,4.51509,0,77,77,88,1,25000,0,125000,149
,,,,,,,,,,,,,,,,,,,,,,002,112,2020-11-13_09h49.59.925,tareaTDv3,2020.2.5,Win32,60,,,,right,0,3.67918,0,78,78,18,1,10000,0,110000,60
,,,,,,,,,,,,,,,,,,,,,,002,112,2020-11-13_09h49.59.925,tareaTDv3,2020.2.5,Win32,60,,,,left,1,1.254,0,79,79,69,1,25000,0,150000,9
,,,,,,,,,,,,,,,,,,,,,,002,112,2020-11-13_09h49.59.925,tareaTDv3,2020.2.5,Win32,60,,,,right,0,3.2868,0,80,80,58,1,5000,0,106000,152
,,,,,,,,,,,,,,,,,,,,,,002,112,2020-11-13_09h49.59.925,tareaTDv3,2020.2.5,Win32,60,,,,right,0,1.62367,0,81,81,87,1,25000,0,75000,151
,,,,,,,,,,,,,,,,,,,,,,002,112,2020-11-13_09h49.59.925,tareaTDv3,2020.2.5,Win32,60,,,,right,0,5.08342,0,82,82,17,1,10000,0,60000,60
,,,,,,,,,,,,,,,,,,,,,,002,112,2020-11-13_09h49.59.925,tareaTDv3,2020.2.5,Win32,60,,,,right,0,5.4481,0,83,83,55,1,5000,0,14000,149
,,,,,,,,,,,,,,,,,,,,,,002,112,2020-11-13_09h49.59.925,tareaTDv3,2020.2.5,Win32,60,,,,right,0,1.807385,0,84,84,83,1,25000,0,125000,89
,,,,,,,,,,,,,,,,,,,,,,002,112,2020-11-13_09h49.59.925,tareaTDv3,2020.2.5,Win32,60,,,,right,0,2.809115,0,85,85,65,1,25000,0,35000,11
,,,,,,,,,,,,,,,,,,,,,,002,112,2020-11-13_09h49.59.925,tareaTDv3,2020.2.5,Win32,60,,,,right,1,2.35201,0,86,86,49,1,5000,0,149000,59
,,,,,,,,,,,,,,,,,,,,,,002,112,2020-11-13_09h49.59.925,tareaTDv3,2020.2.5,Win32,60,,,,left,0,2.0337,0,87,87,45,1,5000,0,15000,61
,,,,,,,,,,,,,,,,,,,,,,002,112,2020-11-13_09h49.59.925,tareaTDv3,2020.2.5,Win32,60,,,,left,0,2.77304,0,88,88,56,1,5000,0,35000,150
,,,,,,,,,,,,,,,,,,,,,,002,112,2020-11-13_09h49.59.925,tareaTDv3,2020.2.5,Win32,60,,,,left,0,6.85595,0,89,89,76,1,25000,0,55000,60
