key1.keys,key1.rt,key2.keys,key2.rt,key2_2.keys,key2_2.rt,key2_3.keys,key2_3.rt,key3.keys,key3.rt,key4.keys,key4.rt,respP.keys,respP.corr,respP.rt,Practice.thisRepN,Practice.thisTrialN,Practice.thisN,Practice.thisIndex,Practice.ran,ssAmount,llAmount,llDelay,session,participant,date,expName,psychopyVersion,OS,frameRate,key5.keys,key5.rt,respT.keys,respT.corr,respT.rt,trials.thisRepN,trials.thisTrialN,trials.thisN,trials.thisIndex,trials.ran,ss_Amt,ss_Delay,ll_Amt,ll_Delay,trials.order
space,3.267385,space,19.591575,space,0.74579,space,8.234445,right,7.734625,space,4.72194,right,0,0.31756,0,0,0,1,1,25000,35000,150,002,129,2020-11-12_11h24.00.647,tareaTDv3,2020.2.5,Win32,60,,,,,,,,,,,,,,,
,,,,,,,,,,,,left,1,3.56496,0,1,1,2,1,10000,19000,89,002,129,2020-11-12_11h24.00.647,tareaTDv3,2020.2.5,Win32,60,,,,,,,,,,,,,,,
,,,,,,,,,,,,right,1,5.0224,0,2,2,0,1,10000,109000,9,002,129,2020-11-12_11h24.00.647,tareaTDv3,2020.2.5,Win32,60,,,,,,,,,,,,,,,
,,,,,,,,,,,,,,,,,,,,,,,002,129,2020-11-12_11h24.00.647,tareaTDv3,2020.2.5,Win32,60,g,6.958435,right,1,1.97531,0,0,0,54,1,5000,0,150000,90,
,,,,,,,,,,,,,,,,,,,,,,,002,129,2020-11-12_11h24.00.647,tareaTDv3,2020.2.5,Win32,60,,,left,1,2.922745,0,1,1,59,1,5000,0,151000,150,
,,,,,,,,,,,,,,,,,,,,,,,002,129,2020-11-12_11h24.00.647,tareaTDv3,2020.2.5,Win32,60,,,left,1,1.79334,0,2,2,58,1,5000,0,106000,152,
,,,,,,,,,,,,,,,,,,,,,,,002,129,2020-11-12_11h24.00.647,tareaTDv3,2020.2.5,Win32,60,,,right,1,6.25626,0,3,3,23,1,10000,0,110000,90,
,,,,,,,,,,,,,,,,,,,,,,,002,129,2020-11-12_11h24.00.647,tareaTDv3,2020.2.5,Win32,60,,,left,0,4.25493,0,4,4,46,1,5000,0,36000,61,
,,,,,,,,,,,,,,,,,,,,,,,002,129,2020-11-12_11h24.00.647,tareaTDv3,2020.2.5,Win32,60,,,right,0,2.49135,0,5,5,51,1,5000,0,35000,89,
,,,,,,,,,,,,,,,,,,,,,,,002,129,2020-11-12_11h24.00.647,tareaTDv3,2020.2.5,Win32,60,,,left,1,2.209625,0,6,6,31,1,5000,0,35000,6,
,,,,,,,,,,,,,,,,,,,,,,,002,129,2020-11-12_11h24.00.647,tareaTDv3,2020.2.5,Win32,60,,,left,0,2.21761,0,7,7,60,1,25000,0,35000,5,
,,,,,,,,,,,,,,,,,,,,,,,002,129,2020-11-12_11h24.00.647,tareaTDv3,2020.2.5,Win32,60,,,left,0,5.14496,0,8,8,82,1,25000,0,75000,90,
,,,,,,,,,,,,,,,,,,,,,,,002,129,2020-11-12_11h24.00.647,tareaTDv3,2020.2.5,Win32,60,,,left,0,5.24574,0,9,9,69,1,25000,0,150000,9,
,,,,,,,,,,,,,,,,,,,,,,,002,129,2020-11-12_11h24.00.647,tareaTDv3,2020.2.5,Win32,60,,,left,1,1.80441,0,10,10,53,1,5000,0,104000,90,
,,,,,,,,,,,,,,,,,,,,,,,002,129,2020-11-12_11h24.00.647,tareaTDv3,2020.2.5,Win32,60,,,left,1,1.737135,0,11,11,30,1,5000,0,16000,4,
,,,,,,,,,,,,,,,,,,,,,,,002,129,2020-11-12_11h24.00.647,tareaTDv3,2020.2.5,Win32,60,,,right,1,2.954025,0,12,12,7,1,10000,0,59000,9,
,,,,,,,,,,,,,,,,,,,,,,,002,129,2020-11-12_11h24.00.647,tareaTDv3,2020.2.5,Win32,60,,,right,1,1.625225,0,13,13,48,1,5000,0,105000,60,
,,,,,,,,,,,,,,,,,,,,,,,002,129,2020-11-12_11h24.00.647,tareaTDv3,2020.2.5,Win32,60,,,right,0,2.76136,0,14,14,24,1,10000,0,149000,89,
,,,,,,,,,,,,,,,,,,,,,,,002,129,2020-11-12_11h24.00.647,tareaTDv3,2020.2.5,Win32,60,,,left,0,3.504165,0,15,15,78,1,25000,0,125000,59,
,,,,,,,,,,,,,,,,,,,,,,,002,129,2020-11-12_11h24.00.647,tareaTDv3,2020.2.5,Win32,60,,,left,0,2.936075,0,16,16,17,1,10000,0,60000,60,
,,,,,,,,,,,,,,,,,,,,,,,002,129,2020-11-12_11h24.00.647,tareaTDv3,2020.2.5,Win32,60,,,right,1,6.68772,0,17,17,88,1,25000,0,125000,149,
,,,,,,,,,,,,,,,,,,,,,,,002,129,2020-11-12_11h24.00.647,tareaTDv3,2020.2.5,Win32,60,,,left,0,1.340245,0,18,18,89,1,25000,0,150000,150,
,,,,,,,,,,,,,,,,,,,,,,,002,129,2020-11-12_11h24.00.647,tareaTDv3,2020.2.5,Win32,60,,,left,0,2.7721,0,19,19,85,1,25000,0,35000,150,
,,,,,,,,,,,,,,,,,,,,,,,002,129,2020-11-12_11h24.00.647,tareaTDv3,2020.2.5,Win32,60,,,right,0,5.069005,0,20,20,25,1,10000,0,10000,150,
,,,,,,,,,,,,,,,,,,,,,,,002,129,2020-11-12_11h24.00.647,tareaTDv3,2020.2.5,Win32,60,,,left,0,1.836815,0,21,21,14,1,10000,0,150000,30,
,,,,,,,,,,,,,,,,,,,,,,,002,129,2020-11-12_11h24.00.647,tareaTDv3,2020.2.5,Win32,60,,,right,1,5.753775,0,22,22,36,1,5000,0,36000,9,
,,,,,,,,,,,,,,,,,,,,,,,002,129,2020-11-12_11h24.00.647,tareaTDv3,2020.2.5,Win32,60,,,right,1,2.737125,0,23,23,76,1,25000,0,55000,60,
,,,,,,,,,,,,,,,,,,,,,,,002,129,2020-11-12_11h24.00.647,tareaTDv3,2020.2.5,Win32,60,,,right,1,3.90564,0,24,24,32,1,5000,0,54000,5,
,,,,,,,,,,,,,,,,,,,,,,,002,129,2020-11-12_11h24.00.647,tareaTDv3,2020.2.5,Win32,60,,,left,0,8.588065,0,25,25,19,1,10000,0,149000,61,
,,,,,,,,,,,,,,,,,,,,,,,002,129,2020-11-12_11h24.00.647,tareaTDv3,2020.2.5,Win32,60,,,right,1,6.344005,0,26,26,9,1,10000,0,151000,11,
,,,,,,,,,,,,,,,,,,,,,,,002,129,2020-11-12_11h24.00.647,tareaTDv3,2020.2.5,Win32,60,,,right,1,12.922765,0,27,27,49,1,5000,0,149000,59,
,,,,,,,,,,,,,,,,,,,,,,,002,129,2020-11-12_11h24.00.647,tareaTDv3,2020.2.5,Win32,60,,,right,1,0.673495,0,28,28,67,1,25000,0,75000,10,
,,,,,,,,,,,,,,,,,,,,,,,002,129,2020-11-12_11h24.00.647,tareaTDv3,2020.2.5,Win32,60,,,left,0,3.440395,0,29,29,40,1,5000,0,14000,31,
,,,,,,,,,,,,,,,,,,,,,,,002,129,2020-11-12_11h24.00.647,tareaTDv3,2020.2.5,Win32,60,,,right,0,11.934305,0,30,30,83,1,25000,0,125000,89,
,,,,,,,,,,,,,,,,,,,,,,,002,129,2020-11-12_11h24.00.647,tareaTDv3,2020.2.5,Win32,60,,,left,1,4.67088,0,31,31,35,1,5000,0,15000,11,
,,,,,,,,,,,,,,,,,,,,,,,002,129,2020-11-12_11h24.00.647,tareaTDv3,2020.2.5,Win32,60,,,right,0,1.28582,0,32,32,29,1,10000,0,151000,151,
,,,,,,,,,,,,,,,,,,,,,,,002,129,2020-11-12_11h24.00.647,tareaTDv3,2020.2.5,Win32,60,,,right,1,0.975105,0,33,33,73,1,25000,0,125000,31,
,,,,,,,,,,,,,,,,,,,,,,,002,129,2020-11-12_11h24.00.647,tareaTDv3,2020.2.5,Win32,60,,,right,0,2.268405,0,34,34,68,1,25000,0,125000,9,
,,,,,,,,,,,,,,,,,,,,,,,002,129,2020-11-12_11h24.00.647,tareaTDv3,2020.2.5,Win32,60,,,left,0,3.592295,0,35,35,56,1,5000,0,35000,150,
,,,,,,,,,,,,,,,,,,,,,,,002,129,2020-11-12_11h24.00.647,tareaTDv3,2020.2.5,Win32,60,,,left,0,3.592965,0,36,36,20,1,10000,0,20000,90,
,,,,,,,,,,,,,,,,,,,,,,,002,129,2020-11-12_11h24.00.647,tareaTDv3,2020.2.5,Win32,60,,,left,1,1.80624,0,37,37,3,1,10000,0,109000,5,
,,,,,,,,,,,,,,,,,,,,,,,002,129,2020-11-12_11h24.00.647,tareaTDv3,2020.2.5,Win32,60,,,right,1,0.838375,0,38,38,6,1,10000,0,40000,10,
,,,,,,,,,,,,,,,,,,,,,,,002,129,2020-11-12_11h24.00.647,tareaTDv3,2020.2.5,Win32,60,,,right,1,0.802515,0,39,39,26,1,10000,0,39000,150,
,,,,,,,,,,,,,,,,,,,,,,,002,129,2020-11-12_11h24.00.647,tareaTDv3,2020.2.5,Win32,60,,,left,1,0.856395,0,40,40,86,1,25000,0,55000,151,
,,,,,,,,,,,,,,,,,,,,,,,002,129,2020-11-12_11h24.00.647,tareaTDv3,2020.2.5,Win32,60,,,right,1,16.4049,0,41,41,34,1,5000,0,151000,4,
,,,,,,,,,,,,,,,,,,,,,,,002,129,2020-11-12_11h24.00.647,tareaTDv3,2020.2.5,Win32,60,,,,0,,0,42,42,41,1,5000,0,35000,31,
,,,,,,,,,,,,,,,,,,,,,,,002,129,2020-11-12_11h24.00.647,tareaTDv3,2020.2.5,Win32,60,,,right,0,0.33169,0,43,43,52,1,5000,0,56000,89,
,,,,,,,,,,,,,,,,,,,,,,,002,129,2020-11-12_11h24.00.647,tareaTDv3,2020.2.5,Win32,60,,,left,0,3.838595,0,44,44,21,1,10000,0,40000,91,
,,,,,,,,,,,,,,,,,,,,,,,002,129,2020-11-12_11h24.00.647,tareaTDv3,2020.2.5,Win32,60,,,left,1,4.456085,0,45,45,13,1,10000,0,111000,30,
,,,,,,,,,,,,,,,,,,,,,,,002,129,2020-11-12_11h24.00.647,tareaTDv3,2020.2.5,Win32,60,,,right,0,3.229865,0,46,46,74,1,25000,0,150000,29,
,,,,,,,,,,,,,,,,,,,,,,,002,129,2020-11-12_11h24.00.647,tareaTDv3,2020.2.5,Win32,60,,,right,0,17.892925,0,47,47,1,1,10000,0,39000,6,
,,,,,,,,,,,,,,,,,,,,,,,002,129,2020-11-12_11h24.00.647,tareaTDv3,2020.2.5,Win32,60,,,left,1,7.351705,0,48,48,44,1,5000,0,150000,30,
,,,,,,,,,,,,,,,,,,,,,,,002,129,2020-11-12_11h24.00.647,tareaTDv3,2020.2.5,Win32,60,,,,0,,0,49,49,8,1,10000,0,111000,10,
,,,,,,,,,,,,,,,,,,,,,,,002,129,2020-11-12_11h24.00.647,tareaTDv3,2020.2.5,Win32,60,,,left,1,18.028815,0,50,50,4,1,10000,0,150000,5,
,,,,,,,,,,,,,,,,,,,,,,,002,129,2020-11-12_11h24.00.647,tareaTDv3,2020.2.5,Win32,60,,,right,1,5.87227,0,51,51,11,1,10000,0,39000,29,
,,,,,,,,,,,,,,,,,,,,,,,002,129,2020-11-12_11h24.00.647,tareaTDv3,2020.2.5,Win32,60,,,left,1,2.57551,1,0,90,28,1,10000,0,109000,149,89
