key1.keys,key1.rt,key2.keys,key2.rt,key2_2.keys,key2_2.rt,key2_3.keys,key2_3.rt,key3.keys,key3.rt,key4.keys,key4.rt,respP.keys,respP.corr,respP.rt,Practice.thisRepN,Practice.thisTrialN,Practice.thisN,Practice.thisIndex,Practice.ran,ssAmount,llAmount,llDelay,session,participant,date,expName,psychopyVersion,OS,frameRate,key5.keys,key5.rt,respT.keys,respT.corr,respT.rt,trials.thisRepN,trials.thisTrialN,trials.thisN,trials.thisIndex,trials.ran,ss_Amt,ss_Delay,ll_Amt,ll_Delay
space,8.844,space,42.69,space,23.106,space,5.076,right,25.089,space,2.359,right,1,8.996,0,0,0,2,1,10000,19000,89,002,265,2020-11-12_11h20.35.652,tareaTDv3,2020.2.5,MacIntel,60,,,,,,,,,,,,,,
,,,,,,,,,,,,,0,,0,1,1,1,1,25000,35000,150,002,265,2020-11-12_11h20.35.652,tareaTDv3,2020.2.5,MacIntel,60,,,,,,,,,,,,,,
,,,,,,,,,,,,,0,,0,2,2,0,1,10000,109000,9,002,265,2020-11-12_11h20.35.652,tareaTDv3,2020.2.5,MacIntel,60,,,,,,,,,,,,,,
,,,,,,,,,,,,,,,,,,,,,,,002,265,2020-11-12_11h20.35.652,tareaTDv3,2020.2.5,MacIntel,60,g,9.971,left,1,3.852,0,0,0,89,1,25000,0,150000,150
,,,,,,,,,,,,,,,,,,,,,,,002,265,2020-11-12_11h20.35.652,tareaTDv3,2020.2.5,MacIntel,60,,,right,0,5.37,0,1,1,26,1,10000,0,39000,150
,,,,,,,,,,,,,,,,,,,,,,,002,265,2020-11-12_11h20.35.652,tareaTDv3,2020.2.5,MacIntel,60,,,left,1,2.556,0,2,2,32,1,5000,0,54000,5
,,,,,,,,,,,,,,,,,,,,,,,002,265,2020-11-12_11h20.35.652,tareaTDv3,2020.2.5,MacIntel,60,,,right,1,8.586,0,3,3,46,1,5000,0,36000,61
,,,,,,,,,,,,,,,,,,,,,,,002,265,2020-11-12_11h20.35.652,tareaTDv3,2020.2.5,MacIntel,60,,,left,0,1.637,0,4,4,55,1,5000,0,14000,149
,,,,,,,,,,,,,,,,,,,,,,,002,265,2020-11-12_11h20.35.652,tareaTDv3,2020.2.5,MacIntel,60,,,left,1,3.989,0,5,5,41,1,5000,0,35000,31
,,,,,,,,,,,,,,,,,,,,,,,002,265,2020-11-12_11h20.35.652,tareaTDv3,2020.2.5,MacIntel,60,,,left,0,1.821,0,6,6,15,1,10000,0,20000,59
,,,,,,,,,,,,,,,,,,,,,,,002,265,2020-11-12_11h20.35.652,tareaTDv3,2020.2.5,MacIntel,60,,,left,0,4.326,0,7,7,75,1,25000,0,35000,60
,,,,,,,,,,,,,,,,,,,,,,,002,265,2020-11-12_11h20.35.652,tareaTDv3,2020.2.5,MacIntel,60,,,right,1,7.769,0,8,8,23,1,10000,0,110000,90
,,,,,,,,,,,,,,,,,,,,,,,002,265,2020-11-12_11h20.35.652,tareaTDv3,2020.2.5,MacIntel,60,,,left,1,4.145,0,9,9,3,1,10000,0,109000,5
,,,,,,,,,,,,,,,,,,,,,,,002,265,2020-11-12_11h20.35.652,tareaTDv3,2020.2.5,MacIntel,60,,,right,0,2.403,0,10,10,86,1,25000,0,55000,151
,,,,,,,,,,,,,,,,,,,,,,,002,265,2020-11-12_11h20.35.652,tareaTDv3,2020.2.5,MacIntel,60,,,right,1,2.743,0,11,11,30,1,5000,0,16000,4
,,,,,,,,,,,,,,,,,,,,,,,002,265,2020-11-12_11h20.35.652,tareaTDv3,2020.2.5,MacIntel,60,,,right,0,2.908,0,12,12,77,1,25000,0,75000,59
,,,,,,,,,,,,,,,,,,,,,,,002,265,2020-11-12_11h20.35.652,tareaTDv3,2020.2.5,MacIntel,60,,,left,1,2.983,0,13,13,13,1,10000,0,111000,30
,,,,,,,,,,,,,,,,,,,,,,,002,265,2020-11-12_11h20.35.652,tareaTDv3,2020.2.5,MacIntel,60,,,left,0,5.504,0,14,14,25,1,10000,0,10000,150
,,,,,,,,,,,,,,,,,,,,,,,002,265,2020-11-12_11h20.35.652,tareaTDv3,2020.2.5,MacIntel,60,,,right,1,2.58,0,15,15,69,1,25000,0,150000,9
,,,,,,,,,,,,,,,,,,,,,,,002,265,2020-11-12_11h20.35.652,tareaTDv3,2020.2.5,MacIntel,60,,,right,1,11.893,0,16,16,47,1,5000,0,56000,60
,,,,,,,,,,,,,,,,,,,,,,,002,265,2020-11-12_11h20.35.652,tareaTDv3,2020.2.5,MacIntel,60,,,right,0,8.161,0,17,17,16,1,10000,0,39000,59
,,,,,,,,,,,,,,,,,,,,,,,002,265,2020-11-12_11h20.35.652,tareaTDv3,2020.2.5,MacIntel,60,,,left,1,1.683,0,18,18,37,1,5000,0,56000,9
,,,,,,,,,,,,,,,,,,,,,,,002,265,2020-11-12_11h20.35.652,tareaTDv3,2020.2.5,MacIntel,60,,,right,1,12.548,0,19,19,10,1,10000,0,21000,31
,,,,,,,,,,,,,,,,,,,,,,,002,265,2020-11-12_11h20.35.652,tareaTDv3,2020.2.5,MacIntel,60,,,right,0,5.123,0,20,20,71,1,25000,0,55000,30
,,,,,,,,,,,,,,,,,,,,,,,002,265,2020-11-12_11h20.35.652,tareaTDv3,2020.2.5,MacIntel,60,,,right,0,2.86,0,21,21,84,1,25000,0,150000,89
,,,,,,,,,,,,,,,,,,,,,,,002,265,2020-11-12_11h20.35.652,tareaTDv3,2020.2.5,MacIntel,60,,,left,1,6.819,0,22,22,28,1,10000,0,109000,149
,,,,,,,,,,,,,,,,,,,,,,,002,265,2020-11-12_11h20.35.652,tareaTDv3,2020.2.5,MacIntel,60,,,left,1,3.223,0,23,23,0,1,10000,0,20000,5
,,,,,,,,,,,,,,,,,,,,,,,002,265,2020-11-12_11h20.35.652,tareaTDv3,2020.2.5,MacIntel,60,,,left,1,9.03,0,24,24,82,1,25000,0,75000,90
,,,,,,,,,,,,,,,,,,,,,,,002,265,2020-11-12_11h20.35.652,tareaTDv3,2020.2.5,MacIntel,60,,,right,1,3.71,0,25,25,19,1,10000,0,149000,61
,,,,,,,,,,,,,,,,,,,,,,,002,265,2020-11-12_11h20.35.652,tareaTDv3,2020.2.5,MacIntel,60,,,right,1,3.478,0,26,26,4,1,10000,0,150000,5
,,,,,,,,,,,,,,,,,,,,,,,002,265,2020-11-12_11h20.35.652,tareaTDv3,2020.2.5,MacIntel,60,,,right,1,5.18,0,27,27,67,1,25000,0,75000,10
,,,,,,,,,,,,,,,,,,,,,,,002,265,2020-11-12_11h20.35.652,tareaTDv3,2020.2.5,MacIntel,60,,,left,1,5.09,0,28,28,50,1,5000,0,15000,91
,,,,,,,,,,,,,,,,,,,,,,,002,265,2020-11-12_11h20.35.652,tareaTDv3,2020.2.5,MacIntel,60,,,right,1,2.913,0,29,29,2,1,10000,0,61000,4
,,,,,,,,,,,,,,,,,,,,,,,002,265,2020-11-12_11h20.35.652,tareaTDv3,2020.2.5,MacIntel,60,,,left,1,5.324,0,30,30,44,1,5000,0,150000,30
,,,,,,,,,,,,,,,,,,,,,,,002,265,2020-11-12_11h20.35.652,tareaTDv3,2020.2.5,MacIntel,60,,,left,1,8.966,0,31,31,21,1,10000,0,40000,91
,,,,,,,,,,,,,,,,,,,,,,,002,265,2020-11-12_11h20.35.652,tareaTDv3,2020.2.5,MacIntel,60,,,right,1,4.857,0,32,32,31,1,5000,0,35000,6
,,,,,,,,,,,,,,,,,,,,,,,002,265,2020-11-12_11h20.35.652,tareaTDv3,2020.2.5,MacIntel,60,,,right,1,2.584,0,33,33,49,1,5000,0,149000,59
,,,,,,,,,,,,,,,,,,,,,,,002,265,2020-11-12_11h20.35.652,tareaTDv3,2020.2.5,MacIntel,60,,,right,1,7.867,0,34,34,63,1,25000,0,125000,4
,,,,,,,,,,,,,,,,,,,,,,,002,265,2020-11-12_11h20.35.652,tareaTDv3,2020.2.5,MacIntel,60,,,right,1,3.979,0,35,35,42,1,5000,0,56000,29
,,,,,,,,,,,,,,,,,,,,,,,002,265,2020-11-12_11h20.35.652,tareaTDv3,2020.2.5,MacIntel,60,,,right,1,5.159,0,36,36,76,1,25000,0,55000,60
,,,,,,,,,,,,,,,,,,,,,,,002,265,2020-11-12_11h20.35.652,tareaTDv3,2020.2.5,MacIntel,60,,,left,1,1.018,0,37,37,61,1,25000,0,55000,6
,,,,,,,,,,,,,,,,,,,,,,,002,265,2020-11-12_11h20.35.652,tareaTDv3,2020.2.5,MacIntel,60,,,left,1,2.83,0,38,38,34,1,5000,0,151000,4
,,,,,,,,,,,,,,,,,,,,,,,002,265,2020-11-12_11h20.35.652,tareaTDv3,2020.2.5,MacIntel,60,,,left,1,0.41,0,39,39,73,1,25000,0,125000,31
,,,,,,,,,,,,,,,,,,,,,,,002,265,2020-11-12_11h20.35.652,tareaTDv3,2020.2.5,MacIntel,60,,,right,1,4.394,0,40,40,66,1,25000,0,55000,11
,,,,,,,,,,,,,,,,,,,,,,,002,265,2020-11-12_11h20.35.652,tareaTDv3,2020.2.5,MacIntel,60,,,right,1,2.044,0,41,41,74,1,25000,0,150000,29
,,,,,,,,,,,,,,,,,,,,,,,002,265,2020-11-12_11h20.35.652,tareaTDv3,2020.2.5,MacIntel,60,,,left,1,1.576,0,42,42,6,1,10000,0,40000,10
,,,,,,,,,,,,,,,,,,,,,,,002,265,2020-11-12_11h20.35.652,tareaTDv3,2020.2.5,MacIntel,60,,,left,1,5.096,0,43,43,35,1,5000,0,15000,11
,,,,,,,,,,,,,,,,,,,,,,,002,265,2020-11-12_11h20.35.652,tareaTDv3,2020.2.5,MacIntel,60,,,left,1,1.639,0,44,44,33,1,5000,0,104000,5
,,,,,,,,,,,,,,,,,,,,,,,002,265,2020-11-12_11h20.35.652,tareaTDv3,2020.2.5,MacIntel,60,,,right,0,5.887,0,45,45,85,1,25000,0,35000,150
,,,,,,,,,,,,,,,,,,,,,,,002,265,2020-11-12_11h20.35.652,tareaTDv3,2020.2.5,MacIntel,60,,,right,1,6.75,0,46,46,18,1,10000,0,110000,60
,,,,,,,,,,,,,,,,,,,,,,,002,265,2020-11-12_11h20.35.652,tareaTDv3,2020.2.5,MacIntel,60,,,left,1,4.53,0,47,47,45,1,5000,0,15000,61
,,,,,,,,,,,,,,,,,,,,,,,002,265,2020-11-12_11h20.35.652,tareaTDv3,2020.2.5,MacIntel,60,,,right,1,2.425,0,48,48,48,1,5000,0,105000,60
,,,,,,,,,,,,,,,,,,,,,,,002,265,2020-11-12_11h20.35.652,tareaTDv3,2020.2.5,MacIntel,60,,,left,1,2.888,0,49,49,24,1,10000,0,149000,89
,,,,,,,,,,,,,,,,,,,,,,,002,265,2020-11-12_11h20.35.652,tareaTDv3,2020.2.5,MacIntel,60,,,right,1,1.224,0,50,50,8,1,10000,0,111000,10
,,,,,,,,,,,,,,,,,,,,,,,002,265,2020-11-12_11h20.35.652,tareaTDv3,2020.2.5,MacIntel,60,,,right,1,1.963,0,51,51,79,1,25000,0,150000,61
,,,,,,,,,,,,,,,,,,,,,,,002,265,2020-11-12_11h20.35.652,tareaTDv3,2020.2.5,MacIntel,60,,,right,1,10.196,0,52,52,27,1,10000,0,61000,150
,,,,,,,,,,,,,,,,,,,,,,,002,265,2020-11-12_11h20.35.652,tareaTDv3,2020.2.5,MacIntel,60,,,right,1,4.96,0,53,53,52,1,5000,0,56000,89
,,,,,,,,,,,,,,,,,,,,,,,002,265,2020-11-12_11h20.35.652,tareaTDv3,2020.2.5,MacIntel,60,,,right,0,2.369,0,54,54,87,1,25000,0,75000,151
,,,,,,,,,,,,,,,,,,,,,,,002,265,2020-11-12_11h20.35.652,tareaTDv3,2020.2.5,MacIntel,60,,,left,1,0.988,0,55,55,78,1,25000,0,125000,59
,,,,,,,,,,,,,,,,,,,,,,,002,265,2020-11-12_11h20.35.652,tareaTDv3,2020.2.5,MacIntel,60,,,left,1,2.606,0,56,56,39,1,5000,0,149000,10
,,,,,,,,,,,,,,,,,,,,,,,002,265,2020-11-12_11h20.35.652,tareaTDv3,2020.2.5,MacIntel,60,,,left,1,1.779,0,57,57,53,1,5000,0,104000,90
,,,,,,,,,,,,,,,,,,,,,,,002,265,2020-11-12_11h20.35.652,tareaTDv3,2020.2.5,MacIntel,60,,,left,1,1.424,0,58,58,72,1,25000,0,75000,31
,,,,,,,,,,,,,,,,,,,,,,,002,265,2020-11-12_11h20.35.652,tareaTDv3,2020.2.5,MacIntel,60,,,left,1,2.723,0,59,59,14,1,10000,0,150000,30
,,,,,,,,,,,,,,,,,,,,,,,002,265,2020-11-12_11h20.35.652,tareaTDv3,2020.2.5,MacIntel,60,,,right,1,0.906,0,60,60,43,1,5000,0,106000,29
,,,,,,,,,,,,,,,,,,,,,,,002,265,2020-11-12_11h20.35.652,tareaTDv3,2020.2.5,MacIntel,60,,,right,1,3.743,0,61,61,20,1,10000,0,20000,90
,,,,,,,,,,,,,,,,,,,,,,,002,265,2020-11-12_11h20.35.652,tareaTDv3,2020.2.5,MacIntel,60,,,right,1,5.036,0,62,62,7,1,10000,0,59000,9
,,,,,,,,,,,,,,,,,,,,,,,002,265,2020-11-12_11h20.35.652,tareaTDv3,2020.2.5,MacIntel,60,,,right,1,0.381,0,63,63,40,1,5000,0,14000,31
,,,,,,,,,,,,,,,,,,,,,,,002,265,2020-11-12_11h20.35.652,tareaTDv3,2020.2.5,MacIntel,60,,,right,1,3.302,0,64,64,60,1,25000,0,35000,5
,,,,,,,,,,,,,,,,,,,,,,,002,265,2020-11-12_11h20.35.652,tareaTDv3,2020.2.5,MacIntel,60,,,right,1,3.195,0,65,65,36,1,5000,0,36000,9
,,,,,,,,,,,,,,,,,,,,,,,002,265,2020-11-12_11h20.35.652,tareaTDv3,2020.2.5,MacIntel,60,,,right,1,1.14,0,66,66,9,1,10000,0,151000,11
,,,,,,,,,,,,,,,,,,,,,,,002,265,2020-11-12_11h20.35.652,tareaTDv3,2020.2.5,MacIntel,60,,,right,1,14.072,0,67,67,81,1,25000,0,55000,90
,,,,,,,,,,,,,,,,,,,,,,,002,265,2020-11-12_11h20.35.652,tareaTDv3,2020.2.5,MacIntel,60,,,right,1,5.829,0,68,68,59,1,5000,0,151000,150
,,,,,,,,,,,,,,,,,,,,,,,002,265,2020-11-12_11h20.35.652,tareaTDv3,2020.2.5,MacIntel,60,,,left,1,2.328,0,69,69,62,1,25000,0,75000,5
,,,,,,,,,,,,,,,,,,,,,,,002,265,2020-11-12_11h20.35.652,tareaTDv3,2020.2.5,MacIntel,60,,,left,1,2.506,0,70,70,29,1,10000,0,151000,151
,,,,,,,,,,,,,,,,,,,,,,,002,265,2020-11-12_11h20.35.652,tareaTDv3,2020.2.5,MacIntel,60,,,left,1,3.057,0,71,71,11,1,10000,0,39000,29
,,,,,,,,,,,,,,,,,,,,,,,002,265,2020-11-12_11h20.35.652,tareaTDv3,2020.2.5,MacIntel,60,,,left,1,7.577,0,72,72,5,1,10000,0,19000,11
,,,,,,,,,,,,,,,,,,,,,,,002,265,2020-11-12_11h20.35.652,tareaTDv3,2020.2.5,MacIntel,60,,,right,0,3.653,0,73,73,80,1,25000,0,35000,90
,,,,,,,,,,,,,,,,,,,,,,,002,265,2020-11-12_11h20.35.652,tareaTDv3,2020.2.5,MacIntel,60,,,left,1,2.645,0,74,74,64,1,25000,0,150000,4
,,,,,,,,,,,,,,,,,,,,,,,002,265,2020-11-12_11h20.35.652,tareaTDv3,2020.2.5,MacIntel,60,,,right,1,3.6,0,75,75,12,1,10000,0,60000,29
,,,,,,,,,,,,,,,,,,,,,,,002,265,2020-11-12_11h20.35.652,tareaTDv3,2020.2.5,MacIntel,60,,,left,1,2.316,0,76,76,38,1,5000,0,104000,10
,,,,,,,,,,,,,,,,,,,,,,,002,265,2020-11-12_11h20.35.652,tareaTDv3,2020.2.5,MacIntel,60,,,left,1,2.584,0,77,77,1,1,10000,0,39000,6
,,,,,,,,,,,,,,,,,,,,,,,002,265,2020-11-12_11h20.35.652,tareaTDv3,2020.2.5,MacIntel,60,,,right,1,5.827,0,78,78,58,1,5000,0,106000,152
,,,,,,,,,,,,,,,,,,,,,,,002,265,2020-11-12_11h20.35.652,tareaTDv3,2020.2.5,MacIntel,60,,,right,0,5.675,0,79,79,17,1,10000,0,60000,60
,,,,,,,,,,,,,,,,,,,,,,,002,265,2020-11-12_11h20.35.652,tareaTDv3,2020.2.5,MacIntel,60,,,right,1,4.776,0,80,80,54,1,5000,0,150000,90
,,,,,,,,,,,,,,,,,,,,,,,002,265,2020-11-12_11h20.35.652,tareaTDv3,2020.2.5,MacIntel,60,,,left,0,7.857,0,81,81,70,1,25000,0,35000,30
,,,,,,,,,,,,,,,,,,,,,,,002,265,2020-11-12_11h20.35.652,tareaTDv3,2020.2.5,MacIntel,60,,,left,1,2.976,0,82,82,68,1,25000,0,125000,9
,,,,,,,,,,,,,,,,,,,,,,,002,265,2020-11-12_11h20.35.652,tareaTDv3,2020.2.5,MacIntel,60,,,right,1,4.887,0,83,83,88,1,25000,0,125000,149
,,,,,,,,,,,,,,,,,,,,,,,002,265,2020-11-12_11h20.35.652,tareaTDv3,2020.2.5,MacIntel,60,,,left,1,2.012,0,84,84,83,1,25000,0,125000,89
,,,,,,,,,,,,,,,,,,,,,,,002,265,2020-11-12_11h20.35.652,tareaTDv3,2020.2.5,MacIntel,60,,,right,0,6.739,0,85,85,51,1,5000,0,35000,89
,,,,,,,,,,,,,,,,,,,,,,,002,265,2020-11-12_11h20.35.652,tareaTDv3,2020.2.5,MacIntel,60,,,right,0,2.294,0,86,86,56,1,5000,0,35000,150
,,,,,,,,,,,,,,,,,,,,,,,002,265,2020-11-12_11h20.35.652,tareaTDv3,2020.2.5,MacIntel,60,,,right,1,3.248,0,87,87,65,1,25000,0,35000,11
,,,,,,,,,,,,,,,,,,,,,,,002,265,2020-11-12_11h20.35.652,tareaTDv3,2020.2.5,MacIntel,60,,,right,1,3.392,0,88,88,57,1,5000,0,55000,151
,,,,,,,,,,,,,,,,,,,,,,,002,265,2020-11-12_11h20.35.652,tareaTDv3,2020.2.5,MacIntel,60,,,right,1,5.242,0,89,89,22,1,10000,0,61000,89
