key1.keys,key1.rt,key2.keys,key2.rt,key2_2.keys,key2_2.rt,key2_3.keys,key2_3.rt,key3.keys,key3.rt,key4.keys,key4.rt,respP.keys,respP.corr,respP.rt,Practice.thisRepN,Practice.thisTrialN,Practice.thisN,Practice.thisIndex,Practice.ran,ssAmount,llAmount,llDelay,session,participant,date,expName,psychopyVersion,OS,frameRate,key5.keys,key5.rt,respT.keys,respT.corr,respT.rt,trials.thisRepN,trials.thisTrialN,trials.thisN,trials.thisIndex,trials.ran,ss_Amt,ss_Delay,ll_Amt,ll_Delay
space,8.0042,space,23.6629,space,0.6675,space,0.0834,left,11.1246,space,3.7466,left,0,9.8668,0,0,0,2,1,10000,19000,89,25-07-2022,319,2022-07-25_07h53.57.858,tareaTDv3,2020.2.5,Win32,60,,,,,,,,,,,,,,
,,,,,,,,,,,,left,0,3.2399,0,1,1,1,1,25000,35000,150,25-07-2022,319,2022-07-25_07h53.57.858,tareaTDv3,2020.2.5,Win32,60,,,,,,,,,,,,,,
,,,,,,,,,,,,right,1,4.4926,0,2,2,0,1,10000,109000,9,25-07-2022,319,2022-07-25_07h53.57.858,tareaTDv3,2020.2.5,Win32,60,,,,,,,,,,,,,,
,,,,,,,,,,,,,,,,,,,,,,,25-07-2022,319,2022-07-25_07h53.57.858,tareaTDv3,2020.2.5,Win32,60,g,5.4945,right,0,5.0954,0,0,0,75,1,25000,0,35000,60
,,,,,,,,,,,,,,,,,,,,,,,25-07-2022,319,2022-07-25_07h53.57.858,tareaTDv3,2020.2.5,Win32,60,,,left,1,2.9421,0,1,1,31,1,5000,0,35000,6
,,,,,,,,,,,,,,,,,,,,,,,25-07-2022,319,2022-07-25_07h53.57.858,tareaTDv3,2020.2.5,Win32,60,,,right,1,1.6191,0,2,2,4,1,10000,0,150000,5
,,,,,,,,,,,,,,,,,,,,,,,25-07-2022,319,2022-07-25_07h53.57.858,tareaTDv3,2020.2.5,Win32,60,,,left,0,3.0119,0,3,3,26,1,10000,0,39000,150
,,,,,,,,,,,,,,,,,,,,,,,25-07-2022,319,2022-07-25_07h53.57.858,tareaTDv3,2020.2.5,Win32,60,,,right,0,4.0628,0,4,4,5,1,10000,0,19000,11
,,,,,,,,,,,,,,,,,,,,,,,25-07-2022,319,2022-07-25_07h53.57.858,tareaTDv3,2020.2.5,Win32,60,,,right,0,1.7863,0,5,5,86,1,25000,0,55000,151
,,,,,,,,,,,,,,,,,,,,,,,25-07-2022,319,2022-07-25_07h53.57.858,tareaTDv3,2020.2.5,Win32,60,,,left,1,7.0038,0,6,6,8,1,10000,0,111000,10
,,,,,,,,,,,,,,,,,,,,,,,25-07-2022,319,2022-07-25_07h53.57.858,tareaTDv3,2020.2.5,Win32,60,,,right,1,7.7188,0,7,7,16,1,10000,0,39000,59
,,,,,,,,,,,,,,,,,,,,,,,25-07-2022,319,2022-07-25_07h53.57.858,tareaTDv3,2020.2.5,Win32,60,,,right,0,2.1909,0,8,8,80,1,25000,0,35000,90
,,,,,,,,,,,,,,,,,,,,,,,25-07-2022,319,2022-07-25_07h53.57.858,tareaTDv3,2020.2.5,Win32,60,,,right,1,3.7478,0,9,9,12,1,10000,0,60000,29
,,,,,,,,,,,,,,,,,,,,,,,25-07-2022,319,2022-07-25_07h53.57.858,tareaTDv3,2020.2.5,Win32,60,,,right,1,15.2998,0,10,10,43,1,5000,0,106000,29
,,,,,,,,,,,,,,,,,,,,,,,25-07-2022,319,2022-07-25_07h53.57.858,tareaTDv3,2020.2.5,Win32,60,,,right,1,9.4206,0,11,11,62,1,25000,0,75000,5
,,,,,,,,,,,,,,,,,,,,,,,25-07-2022,319,2022-07-25_07h53.57.858,tareaTDv3,2020.2.5,Win32,60,,,left,1,1.3352,0,12,12,61,1,25000,0,55000,6
,,,,,,,,,,,,,,,,,,,,,,,25-07-2022,319,2022-07-25_07h53.57.858,tareaTDv3,2020.2.5,Win32,60,,,left,1,4.791,0,13,13,18,1,10000,0,110000,60
,,,,,,,,,,,,,,,,,,,,,,,25-07-2022,319,2022-07-25_07h53.57.858,tareaTDv3,2020.2.5,Win32,60,,,right,1,1.7434,0,14,14,44,1,5000,0,150000,30
,,,,,,,,,,,,,,,,,,,,,,,25-07-2022,319,2022-07-25_07h53.57.858,tareaTDv3,2020.2.5,Win32,60,,,left,1,2.499,0,15,15,34,1,5000,0,151000,4
,,,,,,,,,,,,,,,,,,,,,,,25-07-2022,319,2022-07-25_07h53.57.858,tareaTDv3,2020.2.5,Win32,60,,,left,1,5.5704,0,16,16,52,1,5000,0,56000,89
,,,,,,,,,,,,,,,,,,,,,,,25-07-2022,319,2022-07-25_07h53.57.858,tareaTDv3,2020.2.5,Win32,60,,,right,1,1.0262,0,17,17,67,1,25000,0,75000,10
,,,,,,,,,,,,,,,,,,,,,,,25-07-2022,319,2022-07-25_07h53.57.858,tareaTDv3,2020.2.5,Win32,60,,,left,0,1.6175,0,18,18,27,1,10000,0,61000,150
,,,,,,,,,,,,,,,,,,,,,,,25-07-2022,319,2022-07-25_07h53.57.858,tareaTDv3,2020.2.5,Win32,60,,,left,1,2.4647,0,19,19,48,1,5000,0,105000,60
,,,,,,,,,,,,,,,,,,,,,,,25-07-2022,319,2022-07-25_07h53.57.858,tareaTDv3,2020.2.5,Win32,60,,,left,1,2.6168,0,20,20,47,1,5000,0,56000,60
,,,,,,,,,,,,,,,,,,,,,,,25-07-2022,319,2022-07-25_07h53.57.858,tareaTDv3,2020.2.5,Win32,60,,,right,1,11.2201,0,21,21,79,1,25000,0,150000,61
,,,,,,,,,,,,,,,,,,,,,,,25-07-2022,319,2022-07-25_07h53.57.858,tareaTDv3,2020.2.5,Win32,60,,,left,1,1.1585,0,22,22,69,1,25000,0,150000,9
,,,,,,,,,,,,,,,,,,,,,,,25-07-2022,319,2022-07-25_07h53.57.858,tareaTDv3,2020.2.5,Win32,60,,,right,1,11.8145,0,23,23,45,1,5000,0,15000,61
,,,,,,,,,,,,,,,,,,,,,,,25-07-2022,319,2022-07-25_07h53.57.858,tareaTDv3,2020.2.5,Win32,60,,,left,1,5.5955,0,24,24,66,1,25000,0,55000,11
,,,,,,,,,,,,,,,,,,,,,,,25-07-2022,319,2022-07-25_07h53.57.858,tareaTDv3,2020.2.5,Win32,60,,,right,1,3.9773,0,25,25,39,1,5000,0,149000,10
,,,,,,,,,,,,,,,,,,,,,,,25-07-2022,319,2022-07-25_07h53.57.858,tareaTDv3,2020.2.5,Win32,60,,,right,1,2.9322,0,26,26,76,1,25000,0,55000,60
,,,,,,,,,,,,,,,,,,,,,,,25-07-2022,319,2022-07-25_07h53.57.858,tareaTDv3,2020.2.5,Win32,60,,,left,1,3.2251,0,27,27,63,1,25000,0,125000,4
,,,,,,,,,,,,,,,,,,,,,,,25-07-2022,319,2022-07-25_07h53.57.858,tareaTDv3,2020.2.5,Win32,60,,,left,1,0.8299,0,28,28,74,1,25000,0,150000,29
,,,,,,,,,,,,,,,,,,,,,,,25-07-2022,319,2022-07-25_07h53.57.858,tareaTDv3,2020.2.5,Win32,60,,,right,1,1.5513,0,29,29,11,1,10000,0,39000,29
,,,,,,,,,,,,,,,,,,,,,,,25-07-2022,319,2022-07-25_07h53.57.858,tareaTDv3,2020.2.5,Win32,60,,,left,1,0.9501,0,30,30,19,1,10000,0,149000,61
,,,,,,,,,,,,,,,,,,,,,,,25-07-2022,319,2022-07-25_07h53.57.858,tareaTDv3,2020.2.5,Win32,60,,,left,1,2.0541,0,31,31,41,1,5000,0,35000,31
,,,,,,,,,,,,,,,,,,,,,,,25-07-2022,319,2022-07-25_07h53.57.858,tareaTDv3,2020.2.5,Win32,60,,,left,1,0.6216,0,32,32,29,1,10000,0,151000,151
,,,,,,,,,,,,,,,,,,,,,,,25-07-2022,319,2022-07-25_07h53.57.858,tareaTDv3,2020.2.5,Win32,60,,,right,1,0.497,0,33,33,9,1,10000,0,151000,11
,,,,,,,,,,,,,,,,,,,,,,,25-07-2022,319,2022-07-25_07h53.57.858,tareaTDv3,2020.2.5,Win32,60,,,right,0,1.4243,0,34,34,50,1,5000,0,15000,91
,,,,,,,,,,,,,,,,,,,,,,,25-07-2022,319,2022-07-25_07h53.57.858,tareaTDv3,2020.2.5,Win32,60,,,right,1,3.0603,0,35,35,59,1,5000,0,151000,150
,,,,,,,,,,,,,,,,,,,,,,,25-07-2022,319,2022-07-25_07h53.57.858,tareaTDv3,2020.2.5,Win32,60,,,left,1,2.1654,0,36,36,37,1,5000,0,56000,9
,,,,,,,,,,,,,,,,,,,,,,,25-07-2022,319,2022-07-25_07h53.57.858,tareaTDv3,2020.2.5,Win32,60,,,right,0,3.7245,0,37,37,87,1,25000,0,75000,151
,,,,,,,,,,,,,,,,,,,,,,,25-07-2022,319,2022-07-25_07h53.57.858,tareaTDv3,2020.2.5,Win32,60,,,left,1,2.4124,0,38,38,42,1,5000,0,56000,29
,,,,,,,,,,,,,,,,,,,,,,,25-07-2022,319,2022-07-25_07h53.57.858,tareaTDv3,2020.2.5,Win32,60,,,left,0,3.6987,0,39,39,10,1,10000,0,21000,31
,,,,,,,,,,,,,,,,,,,,,,,25-07-2022,319,2022-07-25_07h53.57.858,tareaTDv3,2020.2.5,Win32,60,,,left,1,2.648,0,40,40,70,1,25000,0,35000,30
,,,,,,,,,,,,,,,,,,,,,,,25-07-2022,319,2022-07-25_07h53.57.858,tareaTDv3,2020.2.5,Win32,60,,,left,0,2.5188,0,41,41,51,1,5000,0,35000,89
,,,,,,,,,,,,,,,,,,,,,,,25-07-2022,319,2022-07-25_07h53.57.858,tareaTDv3,2020.2.5,Win32,60,,,left,1,0.9344,0,42,42,6,1,10000,0,40000,10
,,,,,,,,,,,,,,,,,,,,,,,25-07-2022,319,2022-07-25_07h53.57.858,tareaTDv3,2020.2.5,Win32,60,,,right,1,2.9573,0,43,43,30,1,5000,0,16000,4
,,,,,,,,,,,,,,,,,,,,,,,25-07-2022,319,2022-07-25_07h53.57.858,tareaTDv3,2020.2.5,Win32,60,,,right,1,0.828,0,44,44,36,1,5000,0,36000,9
,,,,,,,,,,,,,,,,,,,,,,,25-07-2022,319,2022-07-25_07h53.57.858,tareaTDv3,2020.2.5,Win32,60,,,left,0,1.3635,0,45,45,88,1,25000,0,125000,149
,,,,,,,,,,,,,,,,,,,,,,,25-07-2022,319,2022-07-25_07h53.57.858,tareaTDv3,2020.2.5,Win32,60,,,left,1,1.5181,0,46,46,14,1,10000,0,150000,30
,,,,,,,,,,,,,,,,,,,,,,,25-07-2022,319,2022-07-25_07h53.57.858,tareaTDv3,2020.2.5,Win32,60,,,right,1,0.6496,0,47,47,2,1,10000,0,61000,4
,,,,,,,,,,,,,,,,,,,,,,,25-07-2022,319,2022-07-25_07h53.57.858,tareaTDv3,2020.2.5,Win32,60,,,left,1,1.2789,0,48,48,73,1,25000,0,125000,31
,,,,,,,,,,,,,,,,,,,,,,,25-07-2022,319,2022-07-25_07h53.57.858,tareaTDv3,2020.2.5,Win32,60,,,right,1,1.1881,0,49,49,84,1,25000,0,150000,89
,,,,,,,,,,,,,,,,,,,,,,,25-07-2022,319,2022-07-25_07h53.57.858,tareaTDv3,2020.2.5,Win32,60,,,right,1,0.6665,0,50,50,53,1,5000,0,104000,90
,,,,,,,,,,,,,,,,,,,,,,,25-07-2022,319,2022-07-25_07h53.57.858,tareaTDv3,2020.2.5,Win32,60,,,right,0,1.1451,0,51,51,85,1,25000,0,35000,150
,,,,,,,,,,,,,,,,,,,,,,,25-07-2022,319,2022-07-25_07h53.57.858,tareaTDv3,2020.2.5,Win32,60,,,right,1,0.4726,0,52,52,33,1,5000,0,104000,5
,,,,,,,,,,,,,,,,,,,,,,,25-07-2022,319,2022-07-25_07h53.57.858,tareaTDv3,2020.2.5,Win32,60,,,right,0,3.14,0,53,53,55,1,5000,0,14000,149
,,,,,,,,,,,,,,,,,,,,,,,25-07-2022,319,2022-07-25_07h53.57.858,tareaTDv3,2020.2.5,Win32,60,,,right,1,0.9912,0,54,54,22,1,10000,0,61000,89
,,,,,,,,,,,,,,,,,,,,,,,25-07-2022,319,2022-07-25_07h53.57.858,tareaTDv3,2020.2.5,Win32,60,,,left,1,0.3328,0,55,55,3,1,10000,0,109000,5
,,,,,,,,,,,,,,,,,,,,,,,25-07-2022,319,2022-07-25_07h53.57.858,tareaTDv3,2020.2.5,Win32,60,,,right,1,0.5161,0,56,56,81,1,25000,0,55000,90
,,,,,,,,,,,,,,,,,,,,,,,25-07-2022,319,2022-07-25_07h53.57.858,tareaTDv3,2020.2.5,Win32,60,,,left,1,2.0372,0,57,57,83,1,25000,0,125000,89
,,,,,,,,,,,,,,,,,,,,,,,25-07-2022,319,2022-07-25_07h53.57.858,tareaTDv3,2020.2.5,Win32,60,,,right,0,0.8818,0,58,58,89,1,25000,0,150000,150
,,,,,,,,,,,,,,,,,,,,,,,25-07-2022,319,2022-07-25_07h53.57.858,tareaTDv3,2020.2.5,Win32,60,,,left,1,1.9551,0,59,59,28,1,10000,0,109000,149
,,,,,,,,,,,,,,,,,,,,,,,25-07-2022,319,2022-07-25_07h53.57.858,tareaTDv3,2020.2.5,Win32,60,,,right,1,1.5338,0,60,60,7,1,10000,0,59000,9
,,,,,,,,,,,,,,,,,,,,,,,25-07-2022,319,2022-07-25_07h53.57.858,tareaTDv3,2020.2.5,Win32,60,,,right,1,3.2887,0,61,61,1,1,10000,0,39000,6
,,,,,,,,,,,,,,,,,,,,,,,25-07-2022,319,2022-07-25_07h53.57.858,tareaTDv3,2020.2.5,Win32,60,,,right,1,2.781,0,62,62,35,1,5000,0,15000,11
,,,,,,,,,,,,,,,,,,,,,,,25-07-2022,319,2022-07-25_07h53.57.858,tareaTDv3,2020.2.5,Win32,60,,,left,1,0.3837,0,63,63,60,1,25000,0,35000,5
,,,,,,,,,,,,,,,,,,,,,,,25-07-2022,319,2022-07-25_07h53.57.858,tareaTDv3,2020.2.5,Win32,60,,,right,1,0.336,0,64,64,38,1,5000,0,104000,10
,,,,,,,,,,,,,,,,,,,,,,,25-07-2022,319,2022-07-25_07h53.57.858,tareaTDv3,2020.2.5,Win32,60,,,left,0,1.016,0,65,65,72,1,25000,0,75000,31
,,,,,,,,,,,,,,,,,,,,,,,25-07-2022,319,2022-07-25_07h53.57.858,tareaTDv3,2020.2.5,Win32,60,,,left,1,0.604,0,66,66,54,1,5000,0,150000,90
,,,,,,,,,,,,,,,,,,,,,,,25-07-2022,319,2022-07-25_07h53.57.858,tareaTDv3,2020.2.5,Win32,60,,,left,0,1.4497,0,67,67,25,1,10000,0,10000,150
,,,,,,,,,,,,,,,,,,,,,,,25-07-2022,319,2022-07-25_07h53.57.858,tareaTDv3,2020.2.5,Win32,60,,,left,1,8.4252,0,68,68,77,1,25000,0,75000,59
,,,,,,,,,,,,,,,,,,,,,,,25-07-2022,319,2022-07-25_07h53.57.858,tareaTDv3,2020.2.5,Win32,60,,,left,1,3.3503,0,69,69,64,1,25000,0,150000,4
,,,,,,,,,,,,,,,,,,,,,,,25-07-2022,319,2022-07-25_07h53.57.858,tareaTDv3,2020.2.5,Win32,60,,,right,0,5.6869,0,70,70,58,1,5000,0,106000,152
,,,,,,,,,,,,,,,,,,,,,,,25-07-2022,319,2022-07-25_07h53.57.858,tareaTDv3,2020.2.5,Win32,60,,,right,1,1.2805,0,71,71,65,1,25000,0,35000,11
,,,,,,,,,,,,,,,,,,,,,,,25-07-2022,319,2022-07-25_07h53.57.858,tareaTDv3,2020.2.5,Win32,60,,,left,1,2.4985,0,72,72,46,1,5000,0,36000,61
,,,,,,,,,,,,,,,,,,,,,,,25-07-2022,319,2022-07-25_07h53.57.858,tareaTDv3,2020.2.5,Win32,60,,,right,0,4.9255,0,73,73,40,1,5000,0,14000,31
,,,,,,,,,,,,,,,,,,,,,,,25-07-2022,319,2022-07-25_07h53.57.858,tareaTDv3,2020.2.5,Win32,60,,,right,1,0.7196,0,74,74,21,1,10000,0,40000,91
,,,,,,,,,,,,,,,,,,,,,,,25-07-2022,319,2022-07-25_07h53.57.858,tareaTDv3,2020.2.5,Win32,60,,,left,1,0.4044,0,75,75,82,1,25000,0,75000,90
,,,,,,,,,,,,,,,,,,,,,,,25-07-2022,319,2022-07-25_07h53.57.858,tareaTDv3,2020.2.5,Win32,60,,,right,1,0.8256,0,76,76,56,1,5000,0,35000,150
,,,,,,,,,,,,,,,,,,,,,,,25-07-2022,319,2022-07-25_07h53.57.858,tareaTDv3,2020.2.5,Win32,60,,,left,1,0.7744,0,77,77,24,1,10000,0,149000,89
,,,,,,,,,,,,,,,,,,,,,,,25-07-2022,319,2022-07-25_07h53.57.858,tareaTDv3,2020.2.5,Win32,60,,,right,1,1.1832,0,78,78,13,1,10000,0,111000,30
,,,,,,,,,,,,,,,,,,,,,,,25-07-2022,319,2022-07-25_07h53.57.858,tareaTDv3,2020.2.5,Win32,60,,,right,1,0.5091,0,79,79,23,1,10000,0,110000,90
,,,,,,,,,,,,,,,,,,,,,,,25-07-2022,319,2022-07-25_07h53.57.858,tareaTDv3,2020.2.5,Win32,60,,,left,1,2.5345,0,80,80,15,1,10000,0,20000,59
,,,,,,,,,,,,,,,,,,,,,,,25-07-2022,319,2022-07-25_07h53.57.858,tareaTDv3,2020.2.5,Win32,60,,,right,1,0.4881,0,81,81,17,1,10000,0,60000,60
,,,,,,,,,,,,,,,,,,,,,,,25-07-2022,319,2022-07-25_07h53.57.858,tareaTDv3,2020.2.5,Win32,60,,,right,1,2.475,0,82,82,32,1,5000,0,54000,5
,,,,,,,,,,,,,,,,,,,,,,,25-07-2022,319,2022-07-25_07h53.57.858,tareaTDv3,2020.2.5,Win32,60,,,right,1,1.8603,0,83,83,71,1,25000,0,55000,30
,,,,,,,,,,,,,,,,,,,,,,,25-07-2022,319,2022-07-25_07h53.57.858,tareaTDv3,2020.2.5,Win32,60,,,right,0,4.7452,0,84,84,49,1,5000,0,149000,59
,,,,,,,,,,,,,,,,,,,,,,,25-07-2022,319,2022-07-25_07h53.57.858,tareaTDv3,2020.2.5,Win32,60,,,left,0,1.2079,0,85,85,57,1,5000,0,55000,151
,,,,,,,,,,,,,,,,,,,,,,,25-07-2022,319,2022-07-25_07h53.57.858,tareaTDv3,2020.2.5,Win32,60,,,right,1,0.71,0,86,86,78,1,25000,0,125000,59
,,,,,,,,,,,,,,,,,,,,,,,25-07-2022,319,2022-07-25_07h53.57.858,tareaTDv3,2020.2.5,Win32,60,,,right,1,1.6754,0,87,87,0,1,10000,0,20000,5
,,,,,,,,,,,,,,,,,,,,,,,25-07-2022,319,2022-07-25_07h53.57.858,tareaTDv3,2020.2.5,Win32,60,,,right,1,0.4853,0,88,88,68,1,25000,0,125000,9
,,,,,,,,,,,,,,,,,,,,,,,25-07-2022,319,2022-07-25_07h53.57.858,tareaTDv3,2020.2.5,Win32,60,,,left,1,1.0379,0,89,89,20,1,10000,0,20000,90
