key1.keys,key1.rt,key2.keys,key2.rt,key2_2.keys,key2_2.rt,key2_3.keys,key2_3.rt,key3.keys,key3.rt,key4.keys,key4.rt,respP.keys,respP.corr,respP.rt,Practice.thisRepN,Practice.thisTrialN,Practice.thisN,Practice.thisIndex,Practice.ran,ssAmount,llAmount,llDelay,session,participant,date,expName,psychopyVersion,OS,frameRate,key5.keys,key5.rt,respT.keys,respT.corr,respT.rt,trials.thisRepN,trials.thisTrialN,trials.thisN,trials.thisIndex,trials.ran,ss_Amt,ss_Delay,ll_Amt,ll_Delay
space,9.034,space,7.163,space,6.4699,space,1.9819,right,15.7193,space,2.7768,right,1,8.3844,0,0,0,2,1,10000,19000,89,25-07-2022,388,2022-07-25_07h56.28.049,tareaTDv3,2020.2.5,Win32,60,,,,,,,,,,,,,,
,,,,,,,,,,,,right,0,4.4845,0,1,1,0,1,10000,109000,9,25-07-2022,388,2022-07-25_07h56.28.049,tareaTDv3,2020.2.5,Win32,60,,,,,,,,,,,,,,
,,,,,,,,,,,,left,0,5.8954,0,2,2,1,1,25000,35000,150,25-07-2022,388,2022-07-25_07h56.28.049,tareaTDv3,2020.2.5,Win32,60,,,,,,,,,,,,,,
,,,,,,,,,,,,,,,,,,,,,,,25-07-2022,388,2022-07-25_07h56.28.049,tareaTDv3,2020.2.5,Win32,60,g,18.0303,right,1,3.8373,0,0,0,20,1,10000,0,20000,90
,,,,,,,,,,,,,,,,,,,,,,,25-07-2022,388,2022-07-25_07h56.28.049,tareaTDv3,2020.2.5,Win32,60,,,left,1,2.7271,0,1,1,36,1,5000,0,36000,9
,,,,,,,,,,,,,,,,,,,,,,,25-07-2022,388,2022-07-25_07h56.28.049,tareaTDv3,2020.2.5,Win32,60,,,right,1,8.4524,0,2,2,3,1,10000,0,109000,5
,,,,,,,,,,,,,,,,,,,,,,,25-07-2022,388,2022-07-25_07h56.28.049,tareaTDv3,2020.2.5,Win32,60,,,right,1,2.785,0,3,3,1,1,10000,0,39000,6
,,,,,,,,,,,,,,,,,,,,,,,25-07-2022,388,2022-07-25_07h56.28.049,tareaTDv3,2020.2.5,Win32,60,,,right,1,2.8527,0,4,4,82,1,25000,0,75000,90
,,,,,,,,,,,,,,,,,,,,,,,25-07-2022,388,2022-07-25_07h56.28.049,tareaTDv3,2020.2.5,Win32,60,,,left,0,5.2988,0,5,5,58,1,5000,0,106000,152
,,,,,,,,,,,,,,,,,,,,,,,25-07-2022,388,2022-07-25_07h56.28.049,tareaTDv3,2020.2.5,Win32,60,,,left,1,5.0968,0,6,6,11,1,10000,0,39000,29
,,,,,,,,,,,,,,,,,,,,,,,25-07-2022,388,2022-07-25_07h56.28.049,tareaTDv3,2020.2.5,Win32,60,,,right,1,2.3807,0,7,7,33,1,5000,0,104000,5
,,,,,,,,,,,,,,,,,,,,,,,25-07-2022,388,2022-07-25_07h56.28.049,tareaTDv3,2020.2.5,Win32,60,,,left,1,3.4808,0,8,8,4,1,10000,0,150000,5
,,,,,,,,,,,,,,,,,,,,,,,25-07-2022,388,2022-07-25_07h56.28.049,tareaTDv3,2020.2.5,Win32,60,,,right,1,2.4655,0,9,9,87,1,25000,0,75000,151
,,,,,,,,,,,,,,,,,,,,,,,25-07-2022,388,2022-07-25_07h56.28.049,tareaTDv3,2020.2.5,Win32,60,,,left,1,2.949,0,10,10,18,1,10000,0,110000,60
,,,,,,,,,,,,,,,,,,,,,,,25-07-2022,388,2022-07-25_07h56.28.049,tareaTDv3,2020.2.5,Win32,60,,,left,1,5.9612,0,11,11,0,1,10000,0,20000,5
,,,,,,,,,,,,,,,,,,,,,,,25-07-2022,388,2022-07-25_07h56.28.049,tareaTDv3,2020.2.5,Win32,60,,,right,1,3.5081,0,12,12,55,1,5000,0,14000,149
,,,,,,,,,,,,,,,,,,,,,,,25-07-2022,388,2022-07-25_07h56.28.049,tareaTDv3,2020.2.5,Win32,60,,,right,1,2.468,0,13,13,2,1,10000,0,61000,4
,,,,,,,,,,,,,,,,,,,,,,,25-07-2022,388,2022-07-25_07h56.28.049,tareaTDv3,2020.2.5,Win32,60,,,left,1,2.2834,0,14,14,78,1,25000,0,125000,59
,,,,,,,,,,,,,,,,,,,,,,,25-07-2022,388,2022-07-25_07h56.28.049,tareaTDv3,2020.2.5,Win32,60,,,right,1,1.8819,0,15,15,89,1,25000,0,150000,150
,,,,,,,,,,,,,,,,,,,,,,,25-07-2022,388,2022-07-25_07h56.28.049,tareaTDv3,2020.2.5,Win32,60,,,right,1,2.022,0,16,16,88,1,25000,0,125000,149
,,,,,,,,,,,,,,,,,,,,,,,25-07-2022,388,2022-07-25_07h56.28.049,tareaTDv3,2020.2.5,Win32,60,,,right,1,1.7394,0,17,17,9,1,10000,0,151000,11
,,,,,,,,,,,,,,,,,,,,,,,25-07-2022,388,2022-07-25_07h56.28.049,tareaTDv3,2020.2.5,Win32,60,,,right,1,9.6424,0,18,18,17,1,10000,0,60000,60
,,,,,,,,,,,,,,,,,,,,,,,25-07-2022,388,2022-07-25_07h56.28.049,tareaTDv3,2020.2.5,Win32,60,,,left,1,2.5983,0,19,19,57,1,5000,0,55000,151
,,,,,,,,,,,,,,,,,,,,,,,25-07-2022,388,2022-07-25_07h56.28.049,tareaTDv3,2020.2.5,Win32,60,,,right,1,2.7733,0,20,20,5,1,10000,0,19000,11
,,,,,,,,,,,,,,,,,,,,,,,25-07-2022,388,2022-07-25_07h56.28.049,tareaTDv3,2020.2.5,Win32,60,,,right,1,3.0419,0,21,21,73,1,25000,0,125000,31
,,,,,,,,,,,,,,,,,,,,,,,25-07-2022,388,2022-07-25_07h56.28.049,tareaTDv3,2020.2.5,Win32,60,,,left,1,3.2713,0,22,22,43,1,5000,0,106000,29
,,,,,,,,,,,,,,,,,,,,,,,25-07-2022,388,2022-07-25_07h56.28.049,tareaTDv3,2020.2.5,Win32,60,,,right,1,2.015,0,23,23,66,1,25000,0,55000,11
,,,,,,,,,,,,,,,,,,,,,,,25-07-2022,388,2022-07-25_07h56.28.049,tareaTDv3,2020.2.5,Win32,60,,,right,1,1.6027,0,24,24,40,1,5000,0,14000,31
,,,,,,,,,,,,,,,,,,,,,,,25-07-2022,388,2022-07-25_07h56.28.049,tareaTDv3,2020.2.5,Win32,60,,,right,1,1.8542,0,25,25,64,1,25000,0,150000,4
,,,,,,,,,,,,,,,,,,,,,,,25-07-2022,388,2022-07-25_07h56.28.049,tareaTDv3,2020.2.5,Win32,60,,,right,1,2.2514,0,26,26,84,1,25000,0,150000,89
,,,,,,,,,,,,,,,,,,,,,,,25-07-2022,388,2022-07-25_07h56.28.049,tareaTDv3,2020.2.5,Win32,60,,,right,1,3.5593,0,27,27,51,1,5000,0,35000,89
,,,,,,,,,,,,,,,,,,,,,,,25-07-2022,388,2022-07-25_07h56.28.049,tareaTDv3,2020.2.5,Win32,60,,,left,1,2.9926,0,28,28,46,1,5000,0,36000,61
,,,,,,,,,,,,,,,,,,,,,,,25-07-2022,388,2022-07-25_07h56.28.049,tareaTDv3,2020.2.5,Win32,60,,,left,1,1.3444,0,29,29,28,1,10000,0,109000,149
,,,,,,,,,,,,,,,,,,,,,,,25-07-2022,388,2022-07-25_07h56.28.049,tareaTDv3,2020.2.5,Win32,60,,,left,1,2.0897,0,30,30,62,1,25000,0,75000,5
,,,,,,,,,,,,,,,,,,,,,,,25-07-2022,388,2022-07-25_07h56.28.049,tareaTDv3,2020.2.5,Win32,60,,,left,1,1.9668,0,31,31,77,1,25000,0,75000,59
,,,,,,,,,,,,,,,,,,,,,,,25-07-2022,388,2022-07-25_07h56.28.049,tareaTDv3,2020.2.5,Win32,60,,,right,1,1.3539,0,32,32,41,1,5000,0,35000,31
,,,,,,,,,,,,,,,,,,,,,,,25-07-2022,388,2022-07-25_07h56.28.049,tareaTDv3,2020.2.5,Win32,60,,,right,1,1.349,0,33,33,34,1,5000,0,151000,4
,,,,,,,,,,,,,,,,,,,,,,,25-07-2022,388,2022-07-25_07h56.28.049,tareaTDv3,2020.2.5,Win32,60,,,right,1,1.8222,0,34,34,76,1,25000,0,55000,60
,,,,,,,,,,,,,,,,,,,,,,,25-07-2022,388,2022-07-25_07h56.28.049,tareaTDv3,2020.2.5,Win32,60,,,left,1,1.8539,0,35,35,67,1,25000,0,75000,10
,,,,,,,,,,,,,,,,,,,,,,,25-07-2022,388,2022-07-25_07h56.28.049,tareaTDv3,2020.2.5,Win32,60,,,left,1,2.2898,0,36,36,6,1,10000,0,40000,10
,,,,,,,,,,,,,,,,,,,,,,,25-07-2022,388,2022-07-25_07h56.28.049,tareaTDv3,2020.2.5,Win32,60,,,right,1,0.7844,0,37,37,47,1,5000,0,56000,60
,,,,,,,,,,,,,,,,,,,,,,,25-07-2022,388,2022-07-25_07h56.28.049,tareaTDv3,2020.2.5,Win32,60,,,right,1,2.2036,0,38,38,45,1,5000,0,15000,61
,,,,,,,,,,,,,,,,,,,,,,,25-07-2022,388,2022-07-25_07h56.28.049,tareaTDv3,2020.2.5,Win32,60,,,right,1,3.035,0,39,39,50,1,5000,0,15000,91
,,,,,,,,,,,,,,,,,,,,,,,25-07-2022,388,2022-07-25_07h56.28.049,tareaTDv3,2020.2.5,Win32,60,,,right,1,3.4248,0,40,40,38,1,5000,0,104000,10
,,,,,,,,,,,,,,,,,,,,,,,25-07-2022,388,2022-07-25_07h56.28.049,tareaTDv3,2020.2.5,Win32,60,,,right,1,5.8637,0,41,41,49,1,5000,0,149000,59
,,,,,,,,,,,,,,,,,,,,,,,25-07-2022,388,2022-07-25_07h56.28.049,tareaTDv3,2020.2.5,Win32,60,,,left,1,3.9405,0,42,42,39,1,5000,0,149000,10
,,,,,,,,,,,,,,,,,,,,,,,25-07-2022,388,2022-07-25_07h56.28.049,tareaTDv3,2020.2.5,Win32,60,,,right,1,10.821,0,43,43,70,1,25000,0,35000,30
,,,,,,,,,,,,,,,,,,,,,,,25-07-2022,388,2022-07-25_07h56.28.049,tareaTDv3,2020.2.5,Win32,60,,,right,1,2.1517,0,44,44,37,1,5000,0,56000,9
,,,,,,,,,,,,,,,,,,,,,,,25-07-2022,388,2022-07-25_07h56.28.049,tareaTDv3,2020.2.5,Win32,60,,,left,1,3.5565,0,45,45,35,1,5000,0,15000,11
,,,,,,,,,,,,,,,,,,,,,,,25-07-2022,388,2022-07-25_07h56.28.049,tareaTDv3,2020.2.5,Win32,60,,,left,1,6.6937,0,46,46,48,1,5000,0,105000,60
,,,,,,,,,,,,,,,,,,,,,,,25-07-2022,388,2022-07-25_07h56.28.049,tareaTDv3,2020.2.5,Win32,60,,,left,1,1.7827,0,47,47,56,1,5000,0,35000,150
,,,,,,,,,,,,,,,,,,,,,,,25-07-2022,388,2022-07-25_07h56.28.049,tareaTDv3,2020.2.5,Win32,60,,,left,1,2.2743,0,48,48,22,1,10000,0,61000,89
,,,,,,,,,,,,,,,,,,,,,,,25-07-2022,388,2022-07-25_07h56.28.049,tareaTDv3,2020.2.5,Win32,60,,,left,1,1.1156,0,49,49,68,1,25000,0,125000,9
,,,,,,,,,,,,,,,,,,,,,,,25-07-2022,388,2022-07-25_07h56.28.049,tareaTDv3,2020.2.5,Win32,60,,,right,1,1.5117,0,50,50,12,1,10000,0,60000,29
,,,,,,,,,,,,,,,,,,,,,,,25-07-2022,388,2022-07-25_07h56.28.049,tareaTDv3,2020.2.5,Win32,60,,,left,1,2.8168,0,51,51,65,1,25000,0,35000,11
,,,,,,,,,,,,,,,,,,,,,,,25-07-2022,388,2022-07-25_07h56.28.049,tareaTDv3,2020.2.5,Win32,60,,,left,1,2.46,0,52,52,15,1,10000,0,20000,59
,,,,,,,,,,,,,,,,,,,,,,,25-07-2022,388,2022-07-25_07h56.28.049,tareaTDv3,2020.2.5,Win32,60,,,right,1,0.8568,0,53,53,42,1,5000,0,56000,29
,,,,,,,,,,,,,,,,,,,,,,,25-07-2022,388,2022-07-25_07h56.28.049,tareaTDv3,2020.2.5,Win32,60,,,left,1,3.2751,0,54,54,7,1,10000,0,59000,9
,,,,,,,,,,,,,,,,,,,,,,,25-07-2022,388,2022-07-25_07h56.28.049,tareaTDv3,2020.2.5,Win32,60,,,right,1,14.4262,0,55,55,86,1,25000,0,55000,151
,,,,,,,,,,,,,,,,,,,,,,,25-07-2022,388,2022-07-25_07h56.28.049,tareaTDv3,2020.2.5,Win32,60,,,right,1,1.1375,0,56,56,79,1,25000,0,150000,61
,,,,,,,,,,,,,,,,,,,,,,,25-07-2022,388,2022-07-25_07h56.28.049,tareaTDv3,2020.2.5,Win32,60,,,left,1,1.275,0,57,57,61,1,25000,0,55000,6
,,,,,,,,,,,,,,,,,,,,,,,25-07-2022,388,2022-07-25_07h56.28.049,tareaTDv3,2020.2.5,Win32,60,,,right,1,2.7596,0,58,58,72,1,25000,0,75000,31
,,,,,,,,,,,,,,,,,,,,,,,25-07-2022,388,2022-07-25_07h56.28.049,tareaTDv3,2020.2.5,Win32,60,,,left,1,0.9133,0,59,59,31,1,5000,0,35000,6
,,,,,,,,,,,,,,,,,,,,,,,25-07-2022,388,2022-07-25_07h56.28.049,tareaTDv3,2020.2.5,Win32,60,,,left,1,1.1278,0,60,60,54,1,5000,0,150000,90
,,,,,,,,,,,,,,,,,,,,,,,25-07-2022,388,2022-07-25_07h56.28.049,tareaTDv3,2020.2.5,Win32,60,,,right,1,1.865,0,61,61,69,1,25000,0,150000,9
,,,,,,,,,,,,,,,,,,,,,,,25-07-2022,388,2022-07-25_07h56.28.049,tareaTDv3,2020.2.5,Win32,60,,,left,1,0.6191,0,62,62,14,1,10000,0,150000,30
,,,,,,,,,,,,,,,,,,,,,,,25-07-2022,388,2022-07-25_07h56.28.049,tareaTDv3,2020.2.5,Win32,60,,,right,1,1.6601,0,63,63,19,1,10000,0,149000,61
,,,,,,,,,,,,,,,,,,,,,,,25-07-2022,388,2022-07-25_07h56.28.049,tareaTDv3,2020.2.5,Win32,60,,,right,0,3.2526,0,64,64,25,1,10000,0,10000,150
,,,,,,,,,,,,,,,,,,,,,,,25-07-2022,388,2022-07-25_07h56.28.049,tareaTDv3,2020.2.5,Win32,60,,,right,1,1.333,0,65,65,81,1,25000,0,55000,90
,,,,,,,,,,,,,,,,,,,,,,,25-07-2022,388,2022-07-25_07h56.28.049,tareaTDv3,2020.2.5,Win32,60,,,left,1,0.4864,0,66,66,44,1,5000,0,150000,30
,,,,,,,,,,,,,,,,,,,,,,,25-07-2022,388,2022-07-25_07h56.28.049,tareaTDv3,2020.2.5,Win32,60,,,right,1,2.3549,0,67,67,63,1,25000,0,125000,4
,,,,,,,,,,,,,,,,,,,,,,,25-07-2022,388,2022-07-25_07h56.28.049,tareaTDv3,2020.2.5,Win32,60,,,right,1,2.3914,0,68,68,32,1,5000,0,54000,5
,,,,,,,,,,,,,,,,,,,,,,,25-07-2022,388,2022-07-25_07h56.28.049,tareaTDv3,2020.2.5,Win32,60,,,left,1,0.7588,0,69,69,59,1,5000,0,151000,150
,,,,,,,,,,,,,,,,,,,,,,,25-07-2022,388,2022-07-25_07h56.28.049,tareaTDv3,2020.2.5,Win32,60,,,left,1,0.96,0,70,70,74,1,25000,0,150000,29
,,,,,,,,,,,,,,,,,,,,,,,25-07-2022,388,2022-07-25_07h56.28.049,tareaTDv3,2020.2.5,Win32,60,,,left,1,0.9722,0,71,71,8,1,10000,0,111000,10
,,,,,,,,,,,,,,,,,,,,,,,25-07-2022,388,2022-07-25_07h56.28.049,tareaTDv3,2020.2.5,Win32,60,,,right,1,5.3078,0,72,72,85,1,25000,0,35000,150
,,,,,,,,,,,,,,,,,,,,,,,25-07-2022,388,2022-07-25_07h56.28.049,tareaTDv3,2020.2.5,Win32,60,,,left,1,1.8327,0,73,73,16,1,10000,0,39000,59
,,,,,,,,,,,,,,,,,,,,,,,25-07-2022,388,2022-07-25_07h56.28.049,tareaTDv3,2020.2.5,Win32,60,,,left,1,1.7046,0,74,74,60,1,25000,0,35000,5
,,,,,,,,,,,,,,,,,,,,,,,25-07-2022,388,2022-07-25_07h56.28.049,tareaTDv3,2020.2.5,Win32,60,,,right,1,0.5503,0,75,75,53,1,5000,0,104000,90
,,,,,,,,,,,,,,,,,,,,,,,25-07-2022,388,2022-07-25_07h56.28.049,tareaTDv3,2020.2.5,Win32,60,,,right,1,2.5041,0,76,76,80,1,25000,0,35000,90
,,,,,,,,,,,,,,,,,,,,,,,25-07-2022,388,2022-07-25_07h56.28.049,tareaTDv3,2020.2.5,Win32,60,,,right,1,0.8938,0,77,77,24,1,10000,0,149000,89
,,,,,,,,,,,,,,,,,,,,,,,25-07-2022,388,2022-07-25_07h56.28.049,tareaTDv3,2020.2.5,Win32,60,,,left,1,0.7261,0,78,78,71,1,25000,0,55000,30
,,,,,,,,,,,,,,,,,,,,,,,25-07-2022,388,2022-07-25_07h56.28.049,tareaTDv3,2020.2.5,Win32,60,,,left,1,1.1633,0,79,79,52,1,5000,0,56000,89
,,,,,,,,,,,,,,,,,,,,,,,25-07-2022,388,2022-07-25_07h56.28.049,tareaTDv3,2020.2.5,Win32,60,,,left,1,1.6624,0,80,80,30,1,5000,0,16000,4
,,,,,,,,,,,,,,,,,,,,,,,25-07-2022,388,2022-07-25_07h56.28.049,tareaTDv3,2020.2.5,Win32,60,,,right,1,1.0038,0,81,81,26,1,10000,0,39000,150
,,,,,,,,,,,,,,,,,,,,,,,25-07-2022,388,2022-07-25_07h56.28.049,tareaTDv3,2020.2.5,Win32,60,,,right,1,1.3005,0,82,82,27,1,10000,0,61000,150
,,,,,,,,,,,,,,,,,,,,,,,25-07-2022,388,2022-07-25_07h56.28.049,tareaTDv3,2020.2.5,Win32,60,,,right,1,0.4624,0,83,83,29,1,10000,0,151000,151
,,,,,,,,,,,,,,,,,,,,,,,25-07-2022,388,2022-07-25_07h56.28.049,tareaTDv3,2020.2.5,Win32,60,,,left,1,1.4754,0,84,84,10,1,10000,0,21000,31
,,,,,,,,,,,,,,,,,,,,,,,25-07-2022,388,2022-07-25_07h56.28.049,tareaTDv3,2020.2.5,Win32,60,,,left,1,0.7841,0,85,85,75,1,25000,0,35000,60
,,,,,,,,,,,,,,,,,,,,,,,25-07-2022,388,2022-07-25_07h56.28.049,tareaTDv3,2020.2.5,Win32,60,,,right,1,0.4461,0,86,86,13,1,10000,0,111000,30
,,,,,,,,,,,,,,,,,,,,,,,25-07-2022,388,2022-07-25_07h56.28.049,tareaTDv3,2020.2.5,Win32,60,,,right,1,1.094,0,87,87,83,1,25000,0,125000,89
,,,,,,,,,,,,,,,,,,,,,,,25-07-2022,388,2022-07-25_07h56.28.049,tareaTDv3,2020.2.5,Win32,60,,,left,1,1.3821,0,88,88,21,1,10000,0,40000,91
,,,,,,,,,,,,,,,,,,,,,,,25-07-2022,388,2022-07-25_07h56.28.049,tareaTDv3,2020.2.5,Win32,60,,,right,1,0.4169,0,89,89,23,1,10000,0,110000,90
