key1.keys,key1.rt,key2.keys,key2.rt,key2_2.keys,key2_2.rt,key2_3.keys,key2_3.rt,key3.keys,key3.rt,key4.keys,key4.rt,respP.keys,respP.corr,respP.rt,Practice.thisRepN,Practice.thisTrialN,Practice.thisN,Practice.thisIndex,Practice.ran,ssAmount,llAmount,llDelay,session,participant,date,expName,psychopyVersion,OS,frameRate,key5.keys,key5.rt,respT.keys,respT.corr,respT.rt,trials.thisRepN,trials.thisTrialN,trials.thisN,trials.thisIndex,trials.ran,ss_Amt,ss_Delay,ll_Amt,ll_Delay
space,3.71771,space,0.23003,space,0.13345,space,0.335715,right,134.19035,space,1.94073,right,0,3.704715,0,0,0,1,1,25000,35000,150,002,392,2020-11-11_11h27.20.066,tareaTDv3,2020.2.5,MacIntel,60,,,,,,,,,,,,,,
,,,,,,,,,,,,left,1,2.90814,0,1,1,0,1,10000,109000,9,002,392,2020-11-11_11h27.20.066,tareaTDv3,2020.2.5,MacIntel,60,,,,,,,,,,,,,,
,,,,,,,,,,,,left,0,2.71455,0,2,2,2,1,10000,19000,89,002,392,2020-11-11_11h27.20.066,tareaTDv3,2020.2.5,MacIntel,60,,,,,,,,,,,,,,
,,,,,,,,,,,,,,,,,,,,,,,002,392,2020-11-11_11h27.20.066,tareaTDv3,2020.2.5,MacIntel,60,g,129.586775,left,1,3.712495,0,0,0,47,1,5000,0,56000,60
,,,,,,,,,,,,,,,,,,,,,,,002,392,2020-11-11_11h27.20.066,tareaTDv3,2020.2.5,MacIntel,60,,,right,1,2.099995,0,1,1,38,1,5000,0,104000,10
,,,,,,,,,,,,,,,,,,,,,,,002,392,2020-11-11_11h27.20.066,tareaTDv3,2020.2.5,MacIntel,60,,,right,0,2.9678,0,2,2,5,1,10000,0,19000,11
,,,,,,,,,,,,,,,,,,,,,,,002,392,2020-11-11_11h27.20.066,tareaTDv3,2020.2.5,MacIntel,60,,,left,1,1.52585,0,3,3,63,1,25000,0,125000,4
,,,,,,,,,,,,,,,,,,,,,,,002,392,2020-11-11_11h27.20.066,tareaTDv3,2020.2.5,MacIntel,60,,,right,0,5.019305,0,4,4,10,1,10000,0,21000,31
,,,,,,,,,,,,,,,,,,,,,,,002,392,2020-11-11_11h27.20.066,tareaTDv3,2020.2.5,MacIntel,60,,,left,1,2.365215,0,5,5,0,1,10000,0,20000,5
,,,,,,,,,,,,,,,,,,,,,,,002,392,2020-11-11_11h27.20.066,tareaTDv3,2020.2.5,MacIntel,60,,,right,1,2.60209,0,6,6,39,1,5000,0,149000,10
,,,,,,,,,,,,,,,,,,,,,,,002,392,2020-11-11_11h27.20.066,tareaTDv3,2020.2.5,MacIntel,60,,,left,0,2.13542,0,7,7,75,1,25000,0,35000,60
,,,,,,,,,,,,,,,,,,,,,,,002,392,2020-11-11_11h27.20.066,tareaTDv3,2020.2.5,MacIntel,60,,,right,0,2.188765,0,8,8,80,1,25000,0,35000,90
,,,,,,,,,,,,,,,,,,,,,,,002,392,2020-11-11_11h27.20.066,tareaTDv3,2020.2.5,MacIntel,60,,,right,0,2.672625,0,9,9,58,1,5000,0,106000,152
,,,,,,,,,,,,,,,,,,,,,,,002,392,2020-11-11_11h27.20.066,tareaTDv3,2020.2.5,MacIntel,60,,,right,0,2.64405,0,10,10,21,1,10000,0,40000,91
,,,,,,,,,,,,,,,,,,,,,,,002,392,2020-11-11_11h27.20.066,tareaTDv3,2020.2.5,MacIntel,60,,,right,0,2.53817,0,11,11,26,1,10000,0,39000,150
,,,,,,,,,,,,,,,,,,,,,,,002,392,2020-11-11_11h27.20.066,tareaTDv3,2020.2.5,MacIntel,60,,,right,1,2.74331,0,12,12,3,1,10000,0,109000,5
,,,,,,,,,,,,,,,,,,,,,,,002,392,2020-11-11_11h27.20.066,tareaTDv3,2020.2.5,MacIntel,60,,,left,1,5.08754,0,13,13,82,1,25000,0,75000,90
,,,,,,,,,,,,,,,,,,,,,,,002,392,2020-11-11_11h27.20.066,tareaTDv3,2020.2.5,MacIntel,60,,,right,1,6.449295,0,14,14,33,1,5000,0,104000,5
,,,,,,,,,,,,,,,,,,,,,,,002,392,2020-11-11_11h27.20.066,tareaTDv3,2020.2.5,MacIntel,60,,,right,0,6.68155,0,15,15,48,1,5000,0,105000,60
,,,,,,,,,,,,,,,,,,,,,,,002,392,2020-11-11_11h27.20.066,tareaTDv3,2020.2.5,MacIntel,60,,,left,1,5.92351,0,16,16,7,1,10000,0,59000,9
,,,,,,,,,,,,,,,,,,,,,,,002,392,2020-11-11_11h27.20.066,tareaTDv3,2020.2.5,MacIntel,60,,,left,1,7.889615,0,17,17,17,1,10000,0,60000,60
,,,,,,,,,,,,,,,,,,,,,,,002,392,2020-11-11_11h27.20.066,tareaTDv3,2020.2.5,MacIntel,60,,,right,0,9.99828,0,18,18,19,1,10000,0,149000,61
,,,,,,,,,,,,,,,,,,,,,,,002,392,2020-11-11_11h27.20.066,tareaTDv3,2020.2.5,MacIntel,60,,,right,0,7.88242,0,19,19,46,1,5000,0,36000,61
,,,,,,,,,,,,,,,,,,,,,,,002,392,2020-11-11_11h27.20.066,tareaTDv3,2020.2.5,MacIntel,60,,,right,0,1.692385,0,20,20,77,1,25000,0,75000,59
,,,,,,,,,,,,,,,,,,,,,,,002,392,2020-11-11_11h27.20.066,tareaTDv3,2020.2.5,MacIntel,60,,,left,0,4.184975,0,21,21,76,1,25000,0,55000,60
,,,,,,,,,,,,,,,,,,,,,,,002,392,2020-11-11_11h27.20.066,tareaTDv3,2020.2.5,MacIntel,60,,,left,0,1.92121,0,22,22,49,1,5000,0,149000,59
,,,,,,,,,,,,,,,,,,,,,,,002,392,2020-11-11_11h27.20.066,tareaTDv3,2020.2.5,MacIntel,60,,,left,1,5.35175,0,23,23,30,1,5000,0,16000,4
,,,,,,,,,,,,,,,,,,,,,,,002,392,2020-11-11_11h27.20.066,tareaTDv3,2020.2.5,MacIntel,60,,,right,1,13.47672,0,24,24,44,1,5000,0,150000,30
,,,,,,,,,,,,,,,,,,,,,,,002,392,2020-11-11_11h27.20.066,tareaTDv3,2020.2.5,MacIntel,60,,,left,0,4.132875,0,25,25,55,1,5000,0,14000,149
,,,,,,,,,,,,,,,,,,,,,,,002,392,2020-11-11_11h27.20.066,tareaTDv3,2020.2.5,MacIntel,60,,,left,1,15.157825,0,26,26,4,1,10000,0,150000,5
,,,,,,,,,,,,,,,,,,,,,,,002,392,2020-11-11_11h27.20.066,tareaTDv3,2020.2.5,MacIntel,60,,,left,1,1.953055,0,27,27,31,1,5000,0,35000,6
,,,,,,,,,,,,,,,,,,,,,,,002,392,2020-11-11_11h27.20.066,tareaTDv3,2020.2.5,MacIntel,60,,,right,1,2.657745,0,28,28,73,1,25000,0,125000,31
,,,,,,,,,,,,,,,,,,,,,,,002,392,2020-11-11_11h27.20.066,tareaTDv3,2020.2.5,MacIntel,60,,,right,0,3.76765,0,29,29,56,1,5000,0,35000,150
,,,,,,,,,,,,,,,,,,,,,,,002,392,2020-11-11_11h27.20.066,tareaTDv3,2020.2.5,MacIntel,60,,,left,1,4.749365,0,30,30,35,1,5000,0,15000,11
,,,,,,,,,,,,,,,,,,,,,,,002,392,2020-11-11_11h27.20.066,tareaTDv3,2020.2.5,MacIntel,60,,,right,1,3.535265,0,31,31,13,1,10000,0,111000,30
,,,,,,,,,,,,,,,,,,,,,,,002,392,2020-11-11_11h27.20.066,tareaTDv3,2020.2.5,MacIntel,60,,,left,0,13.689085,0,32,32,71,1,25000,0,55000,30
,,,,,,,,,,,,,,,,,,,,,,,002,392,2020-11-11_11h27.20.066,tareaTDv3,2020.2.5,MacIntel,60,,,left,0,2.539685,0,33,33,20,1,10000,0,20000,90
,,,,,,,,,,,,,,,,,,,,,,,002,392,2020-11-11_11h27.20.066,tareaTDv3,2020.2.5,MacIntel,60,,,left,1,6.43963,0,34,34,42,1,5000,0,56000,29
,,,,,,,,,,,,,,,,,,,,,,,002,392,2020-11-11_11h27.20.066,tareaTDv3,2020.2.5,MacIntel,60,,,right,1,3.79865,0,35,35,9,1,10000,0,151000,11
,,,,,,,,,,,,,,,,,,,,,,,002,392,2020-11-11_11h27.20.066,tareaTDv3,2020.2.5,MacIntel,60,,,left,0,3.65901,0,36,36,16,1,10000,0,39000,59
,,,,,,,,,,,,,,,,,,,,,,,002,392,2020-11-11_11h27.20.066,tareaTDv3,2020.2.5,MacIntel,60,,,right,1,4.105475,0,37,37,43,1,5000,0,106000,29
,,,,,,,,,,,,,,,,,,,,,,,002,392,2020-11-11_11h27.20.066,tareaTDv3,2020.2.5,MacIntel,60,,,left,0,3.859545,0,38,38,84,1,25000,0,150000,89
,,,,,,,,,,,,,,,,,,,,,,,002,392,2020-11-11_11h27.20.066,tareaTDv3,2020.2.5,MacIntel,60,,,right,0,1.65376,0,39,39,57,1,5000,0,55000,151
,,,,,,,,,,,,,,,,,,,,,,,002,392,2020-11-11_11h27.20.066,tareaTDv3,2020.2.5,MacIntel,60,,,left,1,2.69403,0,40,40,69,1,25000,0,150000,9
,,,,,,,,,,,,,,,,,,,,,,,002,392,2020-11-11_11h27.20.066,tareaTDv3,2020.2.5,MacIntel,60,,,left,1,3.922755,0,41,41,14,1,10000,0,150000,30
,,,,,,,,,,,,,,,,,,,,,,,002,392,2020-11-11_11h27.20.066,tareaTDv3,2020.2.5,MacIntel,60,,,right,1,6.39201,0,42,42,37,1,5000,0,56000,9
,,,,,,,,,,,,,,,,,,,,,,,002,392,2020-11-11_11h27.20.066,tareaTDv3,2020.2.5,MacIntel,60,,,left,1,2.50085,0,43,43,41,1,5000,0,35000,31
,,,,,,,,,,,,,,,,,,,,,,,002,392,2020-11-11_11h27.20.066,tareaTDv3,2020.2.5,MacIntel,60,,,left,0,2.18819,0,44,44,22,1,10000,0,61000,89
,,,,,,,,,,,,,,,,,,,,,,,002,392,2020-11-11_11h27.20.066,tareaTDv3,2020.2.5,MacIntel,60,,,left,0,3.19706,0,45,45,87,1,25000,0,75000,151
,,,,,,,,,,,,,,,,,,,,,,,002,392,2020-11-11_11h27.20.066,tareaTDv3,2020.2.5,MacIntel,60,,,left,0,4.70578,0,46,46,11,1,10000,0,39000,29
,,,,,,,,,,,,,,,,,,,,,,,002,392,2020-11-11_11h27.20.066,tareaTDv3,2020.2.5,MacIntel,60,,,left,1,16.051435,0,47,47,2,1,10000,0,61000,4
,,,,,,,,,,,,,,,,,,,,,,,002,392,2020-11-11_11h27.20.066,tareaTDv3,2020.2.5,MacIntel,60,,,left,1,18.334155,0,48,48,29,1,10000,0,151000,151
,,,,,,,,,,,,,,,,,,,,,,,002,392,2020-11-11_11h27.20.066,tareaTDv3,2020.2.5,MacIntel,60,,,right,0,12.8144,0,49,49,25,1,10000,0,10000,150
,,,,,,,,,,,,,,,,,,,,,,,002,392,2020-11-11_11h27.20.066,tareaTDv3,2020.2.5,MacIntel,60,,,left,0,11.78953,0,50,50,18,1,10000,0,110000,60
,,,,,,,,,,,,,,,,,,,,,,,002,392,2020-11-11_11h27.20.066,tareaTDv3,2020.2.5,MacIntel,60,,,right,1,3.08797,0,51,51,74,1,25000,0,150000,29
,,,,,,,,,,,,,,,,,,,,,,,002,392,2020-11-11_11h27.20.066,tareaTDv3,2020.2.5,MacIntel,60,,,right,1,1.49274,0,52,52,34,1,5000,0,151000,4
,,,,,,,,,,,,,,,,,,,,,,,002,392,2020-11-11_11h27.20.066,tareaTDv3,2020.2.5,MacIntel,60,,,left,0,1.84377,0,53,53,51,1,5000,0,35000,89
,,,,,,,,,,,,,,,,,,,,,,,002,392,2020-11-11_11h27.20.066,tareaTDv3,2020.2.5,MacIntel,60,,,left,1,4.933025,0,54,54,67,1,25000,0,75000,10
,,,,,,,,,,,,,,,,,,,,,,,002,392,2020-11-11_11h27.20.066,tareaTDv3,2020.2.5,MacIntel,60,,,left,1,3.631625,0,55,55,36,1,5000,0,36000,9
,,,,,,,,,,,,,,,,,,,,,,,002,392,2020-11-11_11h27.20.066,tareaTDv3,2020.2.5,MacIntel,60,,,right,0,4.63765,0,56,56,78,1,25000,0,125000,59
,,,,,,,,,,,,,,,,,,,,,,,002,392,2020-11-11_11h27.20.066,tareaTDv3,2020.2.5,MacIntel,60,,,left,0,8.15125,0,57,57,50,1,5000,0,15000,91
,,,,,,,,,,,,,,,,,,,,,,,002,392,2020-11-11_11h27.20.066,tareaTDv3,2020.2.5,MacIntel,60,,,right,0,3.589895,0,58,58,45,1,5000,0,15000,61
,,,,,,,,,,,,,,,,,,,,,,,002,392,2020-11-11_11h27.20.066,tareaTDv3,2020.2.5,MacIntel,60,,,right,1,2.911735,0,59,59,12,1,10000,0,60000,29
,,,,,,,,,,,,,,,,,,,,,,,002,392,2020-11-11_11h27.20.066,tareaTDv3,2020.2.5,MacIntel,60,,,right,0,7.045375,0,60,60,60,1,25000,0,35000,5
,,,,,,,,,,,,,,,,,,,,,,,002,392,2020-11-11_11h27.20.066,tareaTDv3,2020.2.5,MacIntel,60,,,left,0,3.78682,0,61,61,86,1,25000,0,55000,151
,,,,,,,,,,,,,,,,,,,,,,,002,392,2020-11-11_11h27.20.066,tareaTDv3,2020.2.5,MacIntel,60,,,right,1,7.31739,0,62,62,61,1,25000,0,55000,6
,,,,,,,,,,,,,,,,,,,,,,,002,392,2020-11-11_11h27.20.066,tareaTDv3,2020.2.5,MacIntel,60,,,right,0,8.31666,0,63,63,53,1,5000,0,104000,90
,,,,,,,,,,,,,,,,,,,,,,,002,392,2020-11-11_11h27.20.066,tareaTDv3,2020.2.5,MacIntel,60,,,left,0,2.71892,0,64,64,83,1,25000,0,125000,89
,,,,,,,,,,,,,,,,,,,,,,,002,392,2020-11-11_11h27.20.066,tareaTDv3,2020.2.5,MacIntel,60,,,left,0,2.851655,0,65,65,15,1,10000,0,20000,59
,,,,,,,,,,,,,,,,,,,,,,,002,392,2020-11-11_11h27.20.066,tareaTDv3,2020.2.5,MacIntel,60,,,left,1,6.584425,0,66,66,8,1,10000,0,111000,10
,,,,,,,,,,,,,,,,,,,,,,,002,392,2020-11-11_11h27.20.066,tareaTDv3,2020.2.5,MacIntel,60,,,right,0,2.494125,0,67,67,85,1,25000,0,35000,150
,,,,,,,,,,,,,,,,,,,,,,,002,392,2020-11-11_11h27.20.066,tareaTDv3,2020.2.5,MacIntel,60,,,right,0,6.68875,0,68,68,24,1,10000,0,149000,89
,,,,,,,,,,,,,,,,,,,,,,,002,392,2020-11-11_11h27.20.066,tareaTDv3,2020.2.5,MacIntel,60,,,right,1,4.841525,0,69,69,68,1,25000,0,125000,9
,,,,,,,,,,,,,,,,,,,,,,,002,392,2020-11-11_11h27.20.066,tareaTDv3,2020.2.5,MacIntel,60,,,left,1,1.23456,0,70,70,66,1,25000,0,55000,11
,,,,,,,,,,,,,,,,,,,,,,,002,392,2020-11-11_11h27.20.066,tareaTDv3,2020.2.5,MacIntel,60,,,right,0,4.62852,0,71,71,70,1,25000,0,35000,30
,,,,,,,,,,,,,,,,,,,,,,,002,392,2020-11-11_11h27.20.066,tareaTDv3,2020.2.5,MacIntel,60,,,left,1,1.84505,0,72,72,65,1,25000,0,35000,11
,,,,,,,,,,,,,,,,,,,,,,,002,392,2020-11-11_11h27.20.066,tareaTDv3,2020.2.5,MacIntel,60,,,left,1,1.7016,0,73,73,6,1,10000,0,40000,10
,,,,,,,,,,,,,,,,,,,,,,,002,392,2020-11-11_11h27.20.066,tareaTDv3,2020.2.5,MacIntel,60,,,right,0,1.299775,0,74,74,52,1,5000,0,56000,89
,,,,,,,,,,,,,,,,,,,,,,,002,392,2020-11-11_11h27.20.066,tareaTDv3,2020.2.5,MacIntel,60,,,left,1,2.153055,0,75,75,59,1,5000,0,151000,150
,,,,,,,,,,,,,,,,,,,,,,,002,392,2020-11-11_11h27.20.066,tareaTDv3,2020.2.5,MacIntel,60,,,left,1,2.44085,0,76,76,54,1,5000,0,150000,90
,,,,,,,,,,,,,,,,,,,,,,,002,392,2020-11-11_11h27.20.066,tareaTDv3,2020.2.5,MacIntel,60,,,left,1,1.47683,0,77,77,79,1,25000,0,150000,61
,,,,,,,,,,,,,,,,,,,,,,,002,392,2020-11-11_11h27.20.066,tareaTDv3,2020.2.5,MacIntel,60,,,right,1,4.16656,0,78,78,32,1,5000,0,54000,5
,,,,,,,,,,,,,,,,,,,,,,,002,392,2020-11-11_11h27.20.066,tareaTDv3,2020.2.5,MacIntel,60,,,left,0,2.31459,0,79,79,23,1,10000,0,110000,90
,,,,,,,,,,,,,,,,,,,,,,,002,392,2020-11-11_11h27.20.066,tareaTDv3,2020.2.5,MacIntel,60,,,right,1,4.458145,0,80,80,64,1,25000,0,150000,4
,,,,,,,,,,,,,,,,,,,,,,,002,392,2020-11-11_11h27.20.066,tareaTDv3,2020.2.5,MacIntel,60,,,right,1,2.3235,0,81,81,1,1,10000,0,39000,6
,,,,,,,,,,,,,,,,,,,,,,,002,392,2020-11-11_11h27.20.066,tareaTDv3,2020.2.5,MacIntel,60,,,left,1,2.784895,0,82,82,40,1,5000,0,14000,31
,,,,,,,,,,,,,,,,,,,,,,,002,392,2020-11-11_11h27.20.066,tareaTDv3,2020.2.5,MacIntel,60,,,left,0,2.07644,0,83,83,89,1,25000,0,150000,150
,,,,,,,,,,,,,,,,,,,,,,,002,392,2020-11-11_11h27.20.066,tareaTDv3,2020.2.5,MacIntel,60,,,left,0,5.62344,0,84,84,81,1,25000,0,55000,90
,,,,,,,,,,,,,,,,,,,,,,,002,392,2020-11-11_11h27.20.066,tareaTDv3,2020.2.5,MacIntel,60,,,right,1,2.279905,0,85,85,62,1,25000,0,75000,5
,,,,,,,,,,,,,,,,,,,,,,,002,392,2020-11-11_11h27.20.066,tareaTDv3,2020.2.5,MacIntel,60,,,right,1,1.65317,0,86,86,72,1,25000,0,75000,31
,,,,,,,,,,,,,,,,,,,,,,,002,392,2020-11-11_11h27.20.066,tareaTDv3,2020.2.5,MacIntel,60,,,left,0,2.43626,0,87,87,28,1,10000,0,109000,149
,,,,,,,,,,,,,,,,,,,,,,,002,392,2020-11-11_11h27.20.066,tareaTDv3,2020.2.5,MacIntel,60,,,left,0,2.675195,0,88,88,27,1,10000,0,61000,150
,,,,,,,,,,,,,,,,,,,,,,,002,392,2020-11-11_11h27.20.066,tareaTDv3,2020.2.5,MacIntel,60,,,left,0,7.02329,0,89,89,88,1,25000,0,125000,149
