key1.keys,key1.rt,key2.keys,key2.rt,key2_2.keys,key2_2.rt,key2_3.keys,key2_3.rt,key3.keys,key3.rt,key4.keys,key4.rt,respP.keys,respP.corr,respP.rt,Practice.thisRepN,Practice.thisTrialN,Practice.thisN,Practice.thisIndex,Practice.ran,ssAmount,llAmount,llDelay,session,participant,date,expName,psychopyVersion,OS,frameRate,key5.keys,key5.rt,respT.keys,respT.corr,respT.rt,trials.thisRepN,trials.thisTrialN,trials.thisN,trials.thisIndex,trials.ran,ss_Amt,ss_Delay,ll_Amt,ll_Delay,key_resp_4.keys,key_resp_4.rt
space,14.0673,space,13.0009,space,9.0211,space,1.9419,right,5.7167,space,0.9922,right,0,5.3909,0,0,0,1,1,25000,35000,150,24-09-22,71,2022-09-24_08h43.29.595,tareaTDv3,2020.2.5,Win32,60,,,,,,,,,,,,,,,,
,,,,,,,,,,,,left,1,2.9437,0,1,1,0,1,10000,109000,9,24-09-22,71,2022-09-24_08h43.29.595,tareaTDv3,2020.2.5,Win32,60,,,,,,,,,,,,,,,,
,,,,,,,,,,,,right,0,2.4842,0,2,2,2,1,10000,19000,89,24-09-22,71,2022-09-24_08h43.29.595,tareaTDv3,2020.2.5,Win32,60,,,,,,,,,,,,,,,,
,,,,,,,,,,,,,,,,,,,,,,,24-09-22,71,2022-09-24_08h43.29.595,tareaTDv3,2020.2.5,Win32,60,g,4.3731,right,0,2.3589,0,0,0,85,1,25000,0,35000,150,,
,,,,,,,,,,,,,,,,,,,,,,,24-09-22,71,2022-09-24_08h43.29.595,tareaTDv3,2020.2.5,Win32,60,,,left,0,2.1872,0,1,1,26,1,10000,0,39000,150,,
,,,,,,,,,,,,,,,,,,,,,,,24-09-22,71,2022-09-24_08h43.29.595,tareaTDv3,2020.2.5,Win32,60,,,right,1,2.4067,0,2,2,18,1,10000,0,110000,60,,
,,,,,,,,,,,,,,,,,,,,,,,24-09-22,71,2022-09-24_08h43.29.595,tareaTDv3,2020.2.5,Win32,60,,,right,1,1.3005,0,3,3,52,1,5000,0,56000,89,,
,,,,,,,,,,,,,,,,,,,,,,,24-09-22,71,2022-09-24_08h43.29.595,tareaTDv3,2020.2.5,Win32,60,,,right,0,3.5892,0,4,4,16,1,10000,0,39000,59,,
,,,,,,,,,,,,,,,,,,,,,,,24-09-22,71,2022-09-24_08h43.29.595,tareaTDv3,2020.2.5,Win32,60,,,left,0,1.0184,0,5,5,75,1,25000,0,35000,60,,
,,,,,,,,,,,,,,,,,,,,,,,24-09-22,71,2022-09-24_08h43.29.595,tareaTDv3,2020.2.5,Win32,60,,,left,1,2.0604,0,6,6,42,1,5000,0,56000,29,,
,,,,,,,,,,,,,,,,,,,,,,,24-09-22,71,2022-09-24_08h43.29.595,tareaTDv3,2020.2.5,Win32,60,,,left,0,6.2121,0,7,7,5,1,10000,0,19000,11,,
,,,,,,,,,,,,,,,,,,,,,,,24-09-22,71,2022-09-24_08h43.29.595,tareaTDv3,2020.2.5,Win32,60,,,left,0,1.0043,0,8,8,50,1,5000,0,15000,91,,
,,,,,,,,,,,,,,,,,,,,,,,24-09-22,71,2022-09-24_08h43.29.595,tareaTDv3,2020.2.5,Win32,60,,,right,1,2.2216,0,9,9,44,1,5000,0,150000,30,,
,,,,,,,,,,,,,,,,,,,,,,,24-09-22,71,2022-09-24_08h43.29.595,tareaTDv3,2020.2.5,Win32,60,,,right,1,2.1051,0,10,10,36,1,5000,0,36000,9,,
,,,,,,,,,,,,,,,,,,,,,,,24-09-22,71,2022-09-24_08h43.29.595,tareaTDv3,2020.2.5,Win32,60,,,right,1,0.9877,0,11,11,3,1,10000,0,109000,5,,
,,,,,,,,,,,,,,,,,,,,,,,24-09-22,71,2022-09-24_08h43.29.595,tareaTDv3,2020.2.5,Win32,60,,,left,1,2.3107,0,12,12,34,1,5000,0,151000,4,,
,,,,,,,,,,,,,,,,,,,,,,,24-09-22,71,2022-09-24_08h43.29.595,tareaTDv3,2020.2.5,Win32,60,,,right,0,1.0186,0,13,13,24,1,10000,0,149000,89,,
,,,,,,,,,,,,,,,,,,,,,,,24-09-22,71,2022-09-24_08h43.29.595,tareaTDv3,2020.2.5,Win32,60,,,left,0,0.9859,0,14,14,45,1,5000,0,15000,61,,
,,,,,,,,,,,,,,,,,,,,,,,24-09-22,71,2022-09-24_08h43.29.595,tareaTDv3,2020.2.5,Win32,60,,,left,0,1.2705,0,15,15,11,1,10000,0,39000,29,,
,,,,,,,,,,,,,,,,,,,,,,,24-09-22,71,2022-09-24_08h43.29.595,tareaTDv3,2020.2.5,Win32,60,,,left,1,2.1193,0,16,16,74,1,25000,0,150000,29,,
,,,,,,,,,,,,,,,,,,,,,,,24-09-22,71,2022-09-24_08h43.29.595,tareaTDv3,2020.2.5,Win32,60,,,right,0,0.9922,0,17,17,88,1,25000,0,125000,149,,
,,,,,,,,,,,,,,,,,,,,,,,24-09-22,71,2022-09-24_08h43.29.595,tareaTDv3,2020.2.5,Win32,60,,,right,1,0.8172,0,18,18,33,1,5000,0,104000,5,,
,,,,,,,,,,,,,,,,,,,,,,,24-09-22,71,2022-09-24_08h43.29.595,tareaTDv3,2020.2.5,Win32,60,,,right,1,0.7237,0,19,19,68,1,25000,0,125000,9,,
,,,,,,,,,,,,,,,,,,,,,,,24-09-22,71,2022-09-24_08h43.29.595,tareaTDv3,2020.2.5,Win32,60,,,left,0,0.8521,0,20,20,25,1,10000,0,10000,150,,
,,,,,,,,,,,,,,,,,,,,,,,24-09-22,71,2022-09-24_08h43.29.595,tareaTDv3,2020.2.5,Win32,60,,,left,1,2.1169,0,21,21,9,1,10000,0,151000,11,,
,,,,,,,,,,,,,,,,,,,,,,,24-09-22,71,2022-09-24_08h43.29.595,tareaTDv3,2020.2.5,Win32,60,,,left,0,1.5674,0,22,22,72,1,25000,0,75000,31,,
,,,,,,,,,,,,,,,,,,,,,,,24-09-22,71,2022-09-24_08h43.29.595,tareaTDv3,2020.2.5,Win32,60,,,left,0,1.9057,0,23,23,78,1,25000,0,125000,59,,
,,,,,,,,,,,,,,,,,,,,,,,24-09-22,71,2022-09-24_08h43.29.595,tareaTDv3,2020.2.5,Win32,60,,,right,0,1.6925,0,24,24,10,1,10000,0,21000,31,,
,,,,,,,,,,,,,,,,,,,,,,,24-09-22,71,2022-09-24_08h43.29.595,tareaTDv3,2020.2.5,Win32,60,,,right,0,0.9057,0,25,25,57,1,5000,0,55000,151,,
,,,,,,,,,,,,,,,,,,,,,,,24-09-22,71,2022-09-24_08h43.29.595,tareaTDv3,2020.2.5,Win32,60,,,left,0,2.9741,0,26,26,77,1,25000,0,75000,59,,
,,,,,,,,,,,,,,,,,,,,,,,24-09-22,71,2022-09-24_08h43.29.595,tareaTDv3,2020.2.5,Win32,60,,,left,1,2.3456,0,27,27,30,1,5000,0,16000,4,,
,,,,,,,,,,,,,,,,,,,,,,,24-09-22,71,2022-09-24_08h43.29.595,tareaTDv3,2020.2.5,Win32,60,,,right,1,0.935,0,28,28,35,1,5000,0,15000,11,,
,,,,,,,,,,,,,,,,,,,,,,,24-09-22,71,2022-09-24_08h43.29.595,tareaTDv3,2020.2.5,Win32,60,,,right,0,0.8501,0,29,29,19,1,10000,0,149000,61,,
,,,,,,,,,,,,,,,,,,,,,,,24-09-22,71,2022-09-24_08h43.29.595,tareaTDv3,2020.2.5,Win32,60,,,right,1,0.9438,0,30,30,40,1,5000,0,14000,31,,
,,,,,,,,,,,,,,,,,,,,,,,24-09-22,71,2022-09-24_08h43.29.595,tareaTDv3,2020.2.5,Win32,60,,,right,0,0.8599,0,31,31,21,1,10000,0,40000,91,,
,,,,,,,,,,,,,,,,,,,,,,,24-09-22,71,2022-09-24_08h43.29.595,tareaTDv3,2020.2.5,Win32,60,,,right,0,1.0012,0,32,32,41,1,5000,0,35000,31,,
,,,,,,,,,,,,,,,,,,,,,,,24-09-22,71,2022-09-24_08h43.29.595,tareaTDv3,2020.2.5,Win32,60,,,right,0,0.5689,0,33,33,46,1,5000,0,36000,61,,
,,,,,,,,,,,,,,,,,,,,,,,24-09-22,71,2022-09-24_08h43.29.595,tareaTDv3,2020.2.5,Win32,60,,,left,1,3.3331,0,34,34,1,1,10000,0,39000,6,,
,,,,,,,,,,,,,,,,,,,,,,,24-09-22,71,2022-09-24_08h43.29.595,tareaTDv3,2020.2.5,Win32,60,,,left,0,1.1531,0,35,35,53,1,5000,0,104000,90,,
,,,,,,,,,,,,,,,,,,,,,,,24-09-22,71,2022-09-24_08h43.29.595,tareaTDv3,2020.2.5,Win32,60,,,left,0,6.5698,0,36,36,84,1,25000,0,150000,89,,
,,,,,,,,,,,,,,,,,,,,,,,24-09-22,71,2022-09-24_08h43.29.595,tareaTDv3,2020.2.5,Win32,60,,,left,1,1.1711,0,37,37,32,1,5000,0,54000,5,,
,,,,,,,,,,,,,,,,,,,,,,,24-09-22,71,2022-09-24_08h43.29.595,tareaTDv3,2020.2.5,Win32,60,,,right,0,1.6703,0,38,38,49,1,5000,0,149000,59,,
,,,,,,,,,,,,,,,,,,,,,,,24-09-22,71,2022-09-24_08h43.29.595,tareaTDv3,2020.2.5,Win32,60,,,right,1,0.7897,0,39,39,31,1,5000,0,35000,6,,
,,,,,,,,,,,,,,,,,,,,,,,24-09-22,71,2022-09-24_08h43.29.595,tareaTDv3,2020.2.5,Win32,60,,,left,0,0.8352,0,40,40,76,1,25000,0,55000,60,,
,,,,,,,,,,,,,,,,,,,,,,,24-09-22,71,2022-09-24_08h43.29.595,tareaTDv3,2020.2.5,Win32,60,,,left,1,4.7739,0,41,41,39,1,5000,0,149000,10,,
,,,,,,,,,,,,,,,,,,,,,,,24-09-22,71,2022-09-24_08h43.29.595,tareaTDv3,2020.2.5,Win32,60,,,left,1,1.8372,0,42,42,12,1,10000,0,60000,29,,
,,,,,,,,,,,,,,,,,,,,,,,24-09-22,71,2022-09-24_08h43.29.595,tareaTDv3,2020.2.5,Win32,60,,,left,0,1.0517,0,43,43,27,1,10000,0,61000,150,,
,,,,,,,,,,,,,,,,,,,,,,,24-09-22,71,2022-09-24_08h43.29.595,tareaTDv3,2020.2.5,Win32,60,,,left,0,0.9457,0,44,44,47,1,5000,0,56000,60,,
,,,,,,,,,,,,,,,,,,,,,,,24-09-22,71,2022-09-24_08h43.29.595,tareaTDv3,2020.2.5,Win32,60,,,left,0,0.8307,0,45,45,60,1,25000,0,35000,5,,
,,,,,,,,,,,,,,,,,,,,,,,24-09-22,71,2022-09-24_08h43.29.595,tareaTDv3,2020.2.5,Win32,60,,,left,1,0.5183,0,46,46,61,1,25000,0,55000,6,,
,,,,,,,,,,,,,,,,,,,,,,,24-09-22,71,2022-09-24_08h43.29.595,tareaTDv3,2020.2.5,Win32,60,,,left,0,0.994,0,47,47,89,1,25000,0,150000,150,,
,,,,,,,,,,,,,,,,,,,,,,,24-09-22,71,2022-09-24_08h43.29.595,tareaTDv3,2020.2.5,Win32,60,,,left,1,2.5697,0,48,48,8,1,10000,0,111000,10,,
,,,,,,,,,,,,,,,,,,,,,,,24-09-22,71,2022-09-24_08h43.29.595,tareaTDv3,2020.2.5,Win32,60,,,right,0,0.858,0,49,49,29,1,10000,0,151000,151,,
,,,,,,,,,,,,,,,,,,,,,,,24-09-22,71,2022-09-24_08h43.29.595,tareaTDv3,2020.2.5,Win32,60,,,right,0,1.2245,0,50,50,79,1,25000,0,150000,61,,
,,,,,,,,,,,,,,,,,,,,,,,24-09-22,71,2022-09-24_08h43.29.595,tareaTDv3,2020.2.5,Win32,60,,,right,1,2.6563,0,51,51,14,1,10000,0,150000,30,,
,,,,,,,,,,,,,,,,,,,,,,,24-09-22,71,2022-09-24_08h43.29.595,tareaTDv3,2020.2.5,Win32,60,,,left,0,1.7353,0,52,52,69,1,25000,0,150000,9,,
,,,,,,,,,,,,,,,,,,,,,,,24-09-22,71,2022-09-24_08h43.29.595,tareaTDv3,2020.2.5,Win32,60,,,right,0,2.7832,0,53,53,55,1,5000,0,14000,149,,
,,,,,,,,,,,,,,,,,,,,,,,24-09-22,71,2022-09-24_08h43.29.595,tareaTDv3,2020.2.5,Win32,60,,,left,0,0.7254,0,54,54,23,1,10000,0,110000,90,,
,,,,,,,,,,,,,,,,,,,,,,,24-09-22,71,2022-09-24_08h43.29.595,tareaTDv3,2020.2.5,Win32,60,,,left,0,3.622,0,55,55,0,1,10000,0,20000,5,,
,,,,,,,,,,,,,,,,,,,,,,,24-09-22,71,2022-09-24_08h43.29.595,tareaTDv3,2020.2.5,Win32,60,,,right,0,0.8523,0,56,56,82,1,25000,0,75000,90,,
,,,,,,,,,,,,,,,,,,,,,,,24-09-22,71,2022-09-24_08h43.29.595,tareaTDv3,2020.2.5,Win32,60,,,right,0,0.4282,0,57,57,58,1,5000,0,106000,152,,
,,,,,,,,,,,,,,,,,,,,,,,24-09-22,71,2022-09-24_08h43.29.595,tareaTDv3,2020.2.5,Win32,60,,,right,0,0.3448,0,58,58,22,1,10000,0,61000,89,,
,,,,,,,,,,,,,,,,,,,,,,,24-09-22,71,2022-09-24_08h43.29.595,tareaTDv3,2020.2.5,Win32,60,,,right,0,1.3295,0,59,59,70,1,25000,0,35000,30,,
,,,,,,,,,,,,,,,,,,,,,,,24-09-22,71,2022-09-24_08h43.29.595,tareaTDv3,2020.2.5,Win32,60,,,left,0,0.5832,0,60,60,51,1,5000,0,35000,89,,
,,,,,,,,,,,,,,,,,,,,,,,24-09-22,71,2022-09-24_08h43.29.595,tareaTDv3,2020.2.5,Win32,60,,,left,0,0.4493,0,61,61,67,1,25000,0,75000,10,,
,,,,,,,,,,,,,,,,,,,,,,,24-09-22,71,2022-09-24_08h43.29.595,tareaTDv3,2020.2.5,Win32,60,,,right,0,1.403,0,62,62,17,1,10000,0,60000,60,,
,,,,,,,,,,,,,,,,,,,,,,,24-09-22,71,2022-09-24_08h43.29.595,tareaTDv3,2020.2.5,Win32,60,,,right,0,3.9202,0,63,63,28,1,10000,0,109000,149,,
,,,,,,,,,,,,,,,,,,,,,,,24-09-22,71,2022-09-24_08h43.29.595,tareaTDv3,2020.2.5,Win32,60,,,left,0,1.2016,0,64,64,87,1,25000,0,75000,151,,
,,,,,,,,,,,,,,,,,,,,,,,24-09-22,71,2022-09-24_08h43.29.595,tareaTDv3,2020.2.5,Win32,60,,,left,0,1.534,0,65,65,81,1,25000,0,55000,90,,
,,,,,,,,,,,,,,,,,,,,,,,24-09-22,71,2022-09-24_08h43.29.595,tareaTDv3,2020.2.5,Win32,60,,,right,0,0.8682,0,66,66,71,1,25000,0,55000,30,,
,,,,,,,,,,,,,,,,,,,,,,,24-09-22,71,2022-09-24_08h43.29.595,tareaTDv3,2020.2.5,Win32,60,,,left,0,1.6365,0,67,67,43,1,5000,0,106000,29,,
,,,,,,,,,,,,,,,,,,,,,,,24-09-22,71,2022-09-24_08h43.29.595,tareaTDv3,2020.2.5,Win32,60,,,left,0,2.6399,0,68,68,65,1,25000,0,35000,11,,
,,,,,,,,,,,,,,,,,,,,,,,24-09-22,71,2022-09-24_08h43.29.595,tareaTDv3,2020.2.5,Win32,60,,,right,0,1.7395,0,69,69,48,1,5000,0,105000,60,,
,,,,,,,,,,,,,,,,,,,,,,,24-09-22,71,2022-09-24_08h43.29.595,tareaTDv3,2020.2.5,Win32,60,,,right,0,0.5374,0,70,70,20,1,10000,0,20000,90,,
,,,,,,,,,,,,,,,,,,,,,,,24-09-22,71,2022-09-24_08h43.29.595,tareaTDv3,2020.2.5,Win32,60,,,left,1,2.6744,0,71,71,13,1,10000,0,111000,30,,
,,,,,,,,,,,,,,,,,,,,,,,24-09-22,71,2022-09-24_08h43.29.595,tareaTDv3,2020.2.5,Win32,60,,,left,1,4.5453,0,72,72,37,1,5000,0,56000,9,,
,,,,,,,,,,,,,,,,,,,,,,,24-09-22,71,2022-09-24_08h43.29.595,tareaTDv3,2020.2.5,Win32,60,,,right,0,1.6034,0,73,73,54,1,5000,0,150000,90,,
,,,,,,,,,,,,,,,,,,,,,,,24-09-22,71,2022-09-24_08h43.29.595,tareaTDv3,2020.2.5,Win32,60,,,right,0,0.5365,0,74,74,80,1,25000,0,35000,90,,
,,,,,,,,,,,,,,,,,,,,,,,24-09-22,71,2022-09-24_08h43.29.595,tareaTDv3,2020.2.5,Win32,60,,,left,0,2.0737,0,75,75,15,1,10000,0,20000,59,,
,,,,,,,,,,,,,,,,,,,,,,,24-09-22,71,2022-09-24_08h43.29.595,tareaTDv3,2020.2.5,Win32,60,,,right,0,2.3563,0,76,76,2,1,10000,0,61000,4,,
,,,,,,,,,,,,,,,,,,,,,,,24-09-22,71,2022-09-24_08h43.29.595,tareaTDv3,2020.2.5,Win32,60,,,left,0,1.5603,0,77,77,83,1,25000,0,125000,89,,
,,,,,,,,,,,,,,,,,,,,,,,24-09-22,71,2022-09-24_08h43.29.595,tareaTDv3,2020.2.5,Win32,60,,,right,0,0.8223,0,78,78,7,1,10000,0,59000,9,,
,,,,,,,,,,,,,,,,,,,,,,,24-09-22,71,2022-09-24_08h43.29.595,tareaTDv3,2020.2.5,Win32,60,,,left,0,0.8275,0,79,79,66,1,25000,0,55000,11,,
,,,,,,,,,,,,,,,,,,,,,,,24-09-22,71,2022-09-24_08h43.29.595,tareaTDv3,2020.2.5,Win32,60,,,left,1,0.7075,0,80,80,63,1,25000,0,125000,4,,
,,,,,,,,,,,,,,,,,,,,,,,24-09-22,71,2022-09-24_08h43.29.595,tareaTDv3,2020.2.5,Win32,60,,,right,1,0.6378,0,81,81,38,1,5000,0,104000,10,,
,,,,,,,,,,,,,,,,,,,,,,,24-09-22,71,2022-09-24_08h43.29.595,tareaTDv3,2020.2.5,Win32,60,,,right,0,1.4174,0,82,82,59,1,5000,0,151000,150,,
,,,,,,,,,,,,,,,,,,,,,,,24-09-22,71,2022-09-24_08h43.29.595,tareaTDv3,2020.2.5,Win32,60,,,left,0,1.8381,0,83,83,73,1,25000,0,125000,31,,
,,,,,,,,,,,,,,,,,,,,,,,24-09-22,71,2022-09-24_08h43.29.595,tareaTDv3,2020.2.5,Win32,60,,,right,1,0.5892,0,84,84,4,1,10000,0,150000,5,,
,,,,,,,,,,,,,,,,,,,,,,,24-09-22,71,2022-09-24_08h43.29.595,tareaTDv3,2020.2.5,Win32,60,,,left,0,0.7439,0,85,85,86,1,25000,0,55000,151,,
,,,,,,,,,,,,,,,,,,,,,,,24-09-22,71,2022-09-24_08h43.29.595,tareaTDv3,2020.2.5,Win32,60,,,left,1,1.2707,0,86,86,6,1,10000,0,40000,10,,
,,,,,,,,,,,,,,,,,,,,,,,24-09-22,71,2022-09-24_08h43.29.595,tareaTDv3,2020.2.5,Win32,60,,,left,0,1.4097,0,87,87,56,1,5000,0,35000,150,,
,,,,,,,,,,,,,,,,,,,,,,,24-09-22,71,2022-09-24_08h43.29.595,tareaTDv3,2020.2.5,Win32,60,,,left,1,0.7032,0,88,88,64,1,25000,0,150000,4,,
,,,,,,,,,,,,,,,,,,,,,,,24-09-22,71,2022-09-24_08h43.29.595,tareaTDv3,2020.2.5,Win32,60,,,left,1,1.6614,0,89,89,62,1,25000,0,75000,5,,
,,,,,,,,,,,,,,,,,,,,,,,24-09-22,71,2022-09-24_08h43.29.595,tareaTDv3,2020.2.5,Win32,60,,,,,,,,,,,,,,,space,1.8895
