key1.keys,key1.rt,key2.keys,key2.rt,key2_2.keys,key2_2.rt,key2_3.keys,key2_3.rt,key3.keys,key3.rt,key4.keys,key4.rt,respP.keys,respP.corr,Practice.thisRepN,Practice.thisTrialN,Practice.thisN,Practice.thisIndex,Practice.ran,ssAmount,llAmount,llDelay,session,participant,date,expName,psychopyVersion,OS,frameRate,respP.rt,key5.keys,key5.rt,respT.keys,respT.corr,respT.rt,trials.thisRepN,trials.thisTrialN,trials.thisN,trials.thisIndex,trials.ran,ss_Amt,ss_Delay,ll_Amt,ll_Delay,key_resp_4.keys,key_resp_4.rt
space,12.212625,space,31.640625,space,31.18405,space,9.240665,left,8.62399,space,6.01109,,0,0,0,0,0,1,10000,109000,9,002,84,2020-11-13_09h49.36.574,tareaTDv3,2020.2.5,Win32,60,,,,,,,,,,,,,,,,,
,,,,,,,,,,,,right,0,0,1,1,2,1,10000,19000,89,002,84,2020-11-13_09h49.36.574,tareaTDv3,2020.2.5,Win32,60,3.53137,,,,,,,,,,,,,,,,
,,,,,,,,,,,,right,0,0,2,2,1,1,25000,35000,150,002,84,2020-11-13_09h49.36.574,tareaTDv3,2020.2.5,Win32,60,3.44339,,,,,,,,,,,,,,,,
,,,,,,,,,,,,,,,,,,,,,,002,84,2020-11-13_09h49.36.574,tareaTDv3,2020.2.5,Win32,60,,g,44.718775,left,0,3.380485,0,0,0,81,1,25000,0,55000,90,,
,,,,,,,,,,,,,,,,,,,,,,002,84,2020-11-13_09h49.36.574,tareaTDv3,2020.2.5,Win32,60,,,,left,0,11.09456,0,1,1,83,1,25000,0,125000,89,,
,,,,,,,,,,,,,,,,,,,,,,002,84,2020-11-13_09h49.36.574,tareaTDv3,2020.2.5,Win32,60,,,,left,0,14.871255,0,2,2,51,1,5000,0,35000,89,,
,,,,,,,,,,,,,,,,,,,,,,002,84,2020-11-13_09h49.36.574,tareaTDv3,2020.2.5,Win32,60,,,,right,0,11.76104,0,3,3,66,1,25000,0,55000,11,,
,,,,,,,,,,,,,,,,,,,,,,002,84,2020-11-13_09h49.36.574,tareaTDv3,2020.2.5,Win32,60,,,,right,0,13.69196,0,4,4,16,1,10000,0,39000,59,,
,,,,,,,,,,,,,,,,,,,,,,002,84,2020-11-13_09h49.36.574,tareaTDv3,2020.2.5,Win32,60,,,,right,0,13.14248,0,5,5,71,1,25000,0,55000,30,,
,,,,,,,,,,,,,,,,,,,,,,002,84,2020-11-13_09h49.36.574,tareaTDv3,2020.2.5,Win32,60,,,,left,1,16.00173,0,6,6,10,1,10000,0,21000,31,,
,,,,,,,,,,,,,,,,,,,,,,002,84,2020-11-13_09h49.36.574,tareaTDv3,2020.2.5,Win32,60,,,,right,0,13.919205,0,7,7,27,1,10000,0,61000,150,,
,,,,,,,,,,,,,,,,,,,,,,002,84,2020-11-13_09h49.36.574,tareaTDv3,2020.2.5,Win32,60,,,,right,1,8.80872,0,8,8,53,1,5000,0,104000,90,,
,,,,,,,,,,,,,,,,,,,,,,002,84,2020-11-13_09h49.36.574,tareaTDv3,2020.2.5,Win32,60,,,,left,1,8.98935,0,9,9,54,1,5000,0,150000,90,,
,,,,,,,,,,,,,,,,,,,,,,002,84,2020-11-13_09h49.36.574,tareaTDv3,2020.2.5,Win32,60,,,,left,1,17.06737,0,10,10,79,1,25000,0,150000,61,,
,,,,,,,,,,,,,,,,,,,,,,002,84,2020-11-13_09h49.36.574,tareaTDv3,2020.2.5,Win32,60,,,,right,1,9.64128,0,11,11,48,1,5000,0,105000,60,,
,,,,,,,,,,,,,,,,,,,,,,002,84,2020-11-13_09h49.36.574,tareaTDv3,2020.2.5,Win32,60,,,,right,0,15.286025,0,12,12,77,1,25000,0,75000,59,,
,,,,,,,,,,,,,,,,,,,,,,002,84,2020-11-13_09h49.36.574,tareaTDv3,2020.2.5,Win32,60,,,,right,1,5.163745,0,13,13,19,1,10000,0,149000,61,,
,,,,,,,,,,,,,,,,,,,,,,002,84,2020-11-13_09h49.36.574,tareaTDv3,2020.2.5,Win32,60,,,,left,0,3.88141,0,14,14,45,1,5000,0,15000,61,,
,,,,,,,,,,,,,,,,,,,,,,002,84,2020-11-13_09h49.36.574,tareaTDv3,2020.2.5,Win32,60,,,,left,0,2.751745,0,15,15,70,1,25000,0,35000,30,,
,,,,,,,,,,,,,,,,,,,,,,002,84,2020-11-13_09h49.36.574,tareaTDv3,2020.2.5,Win32,60,,,,right,0,14.75849,0,16,16,89,1,25000,0,150000,150,,
,,,,,,,,,,,,,,,,,,,,,,002,84,2020-11-13_09h49.36.574,tareaTDv3,2020.2.5,Win32,60,,,,left,1,4.83356,0,17,17,1,1,10000,0,39000,6,,
,,,,,,,,,,,,,,,,,,,,,,002,84,2020-11-13_09h49.36.574,tareaTDv3,2020.2.5,Win32,60,,,,right,1,12.09456,0,18,18,8,1,10000,0,111000,10,,
,,,,,,,,,,,,,,,,,,,,,,002,84,2020-11-13_09h49.36.574,tareaTDv3,2020.2.5,Win32,60,,,,right,0,12.305665,0,19,19,40,1,5000,0,14000,31,,
,,,,,,,,,,,,,,,,,,,,,,002,84,2020-11-13_09h49.36.574,tareaTDv3,2020.2.5,Win32,60,,,,right,1,9.93986,0,20,20,37,1,5000,0,56000,9,,
,,,,,,,,,,,,,,,,,,,,,,002,84,2020-11-13_09h49.36.574,tareaTDv3,2020.2.5,Win32,60,,,,left,0,2.739505,0,21,21,55,1,5000,0,14000,149,,
,,,,,,,,,,,,,,,,,,,,,,002,84,2020-11-13_09h49.36.574,tareaTDv3,2020.2.5,Win32,60,,,,left,1,16.47673,0,22,22,5,1,10000,0,19000,11,,
,,,,,,,,,,,,,,,,,,,,,,002,84,2020-11-13_09h49.36.574,tareaTDv3,2020.2.5,Win32,60,,,,right,0,3.397265,0,23,23,21,1,10000,0,40000,91,,
,,,,,,,,,,,,,,,,,,,,,,002,84,2020-11-13_09h49.36.574,tareaTDv3,2020.2.5,Win32,60,,,,left,0,2.3018,0,24,24,85,1,25000,0,35000,150,,
,,,,,,,,,,,,,,,,,,,,,,002,84,2020-11-13_09h49.36.574,tareaTDv3,2020.2.5,Win32,60,,,,left,0,14.53487,0,25,25,82,1,25000,0,75000,90,,
,,,,,,,,,,,,,,,,,,,,,,002,84,2020-11-13_09h49.36.574,tareaTDv3,2020.2.5,Win32,60,,,,left,0,2.76026,0,26,26,65,1,25000,0,35000,11,,
,,,,,,,,,,,,,,,,,,,,,,002,84,2020-11-13_09h49.36.574,tareaTDv3,2020.2.5,Win32,60,,,,right,1,13.059475,0,27,27,47,1,5000,0,56000,60,,
,,,,,,,,,,,,,,,,,,,,,,002,84,2020-11-13_09h49.36.574,tareaTDv3,2020.2.5,Win32,60,,,,right,1,9.84787,0,28,28,57,1,5000,0,55000,151,,
,,,,,,,,,,,,,,,,,,,,,,002,84,2020-11-13_09h49.36.574,tareaTDv3,2020.2.5,Win32,60,,,,left,1,4.989615,0,29,29,7,1,10000,0,59000,9,,
,,,,,,,,,,,,,,,,,,,,,,002,84,2020-11-13_09h49.36.574,tareaTDv3,2020.2.5,Win32,60,,,,left,1,2.083645,0,30,30,31,1,5000,0,35000,6,,
,,,,,,,,,,,,,,,,,,,,,,002,84,2020-11-13_09h49.36.574,tareaTDv3,2020.2.5,Win32,60,,,,right,1,12.524905,0,31,31,61,1,25000,0,55000,6,,
,,,,,,,,,,,,,,,,,,,,,,002,84,2020-11-13_09h49.36.574,tareaTDv3,2020.2.5,Win32,60,,,,right,1,13.62769,0,32,32,69,1,25000,0,150000,9,,
,,,,,,,,,,,,,,,,,,,,,,002,84,2020-11-13_09h49.36.574,tareaTDv3,2020.2.5,Win32,60,,,,left,1,2.42335,0,33,33,3,1,10000,0,109000,5,,
,,,,,,,,,,,,,,,,,,,,,,002,84,2020-11-13_09h49.36.574,tareaTDv3,2020.2.5,Win32,60,,,,right,1,2.59922,0,34,34,59,1,5000,0,151000,150,,
,,,,,,,,,,,,,,,,,,,,,,002,84,2020-11-13_09h49.36.574,tareaTDv3,2020.2.5,Win32,60,,,,left,1,1.60647,0,35,35,2,1,10000,0,61000,4,,
,,,,,,,,,,,,,,,,,,,,,,002,84,2020-11-13_09h49.36.574,tareaTDv3,2020.2.5,Win32,60,,,,left,1,1.933255,0,36,36,62,1,25000,0,75000,5,,
,,,,,,,,,,,,,,,,,,,,,,002,84,2020-11-13_09h49.36.574,tareaTDv3,2020.2.5,Win32,60,,,,right,1,9.36182,0,37,37,38,1,5000,0,104000,10,,
,,,,,,,,,,,,,,,,,,,,,,002,84,2020-11-13_09h49.36.574,tareaTDv3,2020.2.5,Win32,60,,,,right,1,9.53086,0,38,38,12,1,10000,0,60000,29,,
,,,,,,,,,,,,,,,,,,,,,,002,84,2020-11-13_09h49.36.574,tareaTDv3,2020.2.5,Win32,60,,,,right,1,1.658195,0,39,39,52,1,5000,0,56000,89,,
,,,,,,,,,,,,,,,,,,,,,,002,84,2020-11-13_09h49.36.574,tareaTDv3,2020.2.5,Win32,60,,,,left,0,1.898785,0,40,40,60,1,25000,0,35000,5,,
,,,,,,,,,,,,,,,,,,,,,,002,84,2020-11-13_09h49.36.574,tareaTDv3,2020.2.5,Win32,60,,,,right,1,2.902135,0,41,41,56,1,5000,0,35000,150,,
,,,,,,,,,,,,,,,,,,,,,,002,84,2020-11-13_09h49.36.574,tareaTDv3,2020.2.5,Win32,60,,,,right,1,1.434345,0,42,42,74,1,25000,0,150000,29,,
,,,,,,,,,,,,,,,,,,,,,,002,84,2020-11-13_09h49.36.574,tareaTDv3,2020.2.5,Win32,60,,,,left,0,3.548065,0,43,43,25,1,10000,0,10000,150,,
,,,,,,,,,,,,,,,,,,,,,,002,84,2020-11-13_09h49.36.574,tareaTDv3,2020.2.5,Win32,60,,,,left,1,1.8321,0,44,44,36,1,5000,0,36000,9,,
,,,,,,,,,,,,,,,,,,,,,,002,84,2020-11-13_09h49.36.574,tareaTDv3,2020.2.5,Win32,60,,,,right,1,1.268245,0,45,45,73,1,25000,0,125000,31,,
,,,,,,,,,,,,,,,,,,,,,,002,84,2020-11-13_09h49.36.574,tareaTDv3,2020.2.5,Win32,60,,,,left,1,2.154035,0,46,46,58,1,5000,0,106000,152,,
,,,,,,,,,,,,,,,,,,,,,,002,84,2020-11-13_09h49.36.574,tareaTDv3,2020.2.5,Win32,60,,,,left,1,0.87564,0,47,47,34,1,5000,0,151000,4,,
,,,,,,,,,,,,,,,,,,,,,,002,84,2020-11-13_09h49.36.574,tareaTDv3,2020.2.5,Win32,60,,,,right,1,1.21308,0,48,48,18,1,10000,0,110000,60,,
,,,,,,,,,,,,,,,,,,,,,,002,84,2020-11-13_09h49.36.574,tareaTDv3,2020.2.5,Win32,60,,,,right,1,3.4378,0,49,49,0,1,10000,0,20000,5,,
,,,,,,,,,,,,,,,,,,,,,,002,84,2020-11-13_09h49.36.574,tareaTDv3,2020.2.5,Win32,60,,,,left,1,16.01888,0,50,50,22,1,10000,0,61000,89,,
,,,,,,,,,,,,,,,,,,,,,,002,84,2020-11-13_09h49.36.574,tareaTDv3,2020.2.5,Win32,60,,,,left,1,1.2329,0,51,51,14,1,10000,0,150000,30,,
,,,,,,,,,,,,,,,,,,,,,,002,84,2020-11-13_09h49.36.574,tareaTDv3,2020.2.5,Win32,60,,,,left,1,0.56751,0,52,52,32,1,5000,0,54000,5,,
,,,,,,,,,,,,,,,,,,,,,,002,84,2020-11-13_09h49.36.574,tareaTDv3,2020.2.5,Win32,60,,,,left,1,1.18436,0,53,53,29,1,10000,0,151000,151,,
,,,,,,,,,,,,,,,,,,,,,,002,84,2020-11-13_09h49.36.574,tareaTDv3,2020.2.5,Win32,60,,,,right,1,0.7392,0,54,54,11,1,10000,0,39000,29,,
,,,,,,,,,,,,,,,,,,,,,,002,84,2020-11-13_09h49.36.574,tareaTDv3,2020.2.5,Win32,60,,,,left,1,1.9833,0,55,55,9,1,10000,0,151000,11,,
,,,,,,,,,,,,,,,,,,,,,,002,84,2020-11-13_09h49.36.574,tareaTDv3,2020.2.5,Win32,60,,,,left,0,3.04142,0,56,56,50,1,5000,0,15000,91,,
,,,,,,,,,,,,,,,,,,,,,,002,84,2020-11-13_09h49.36.574,tareaTDv3,2020.2.5,Win32,60,,,,right,1,1.5491,0,57,57,84,1,25000,0,150000,89,,
,,,,,,,,,,,,,,,,,,,,,,002,84,2020-11-13_09h49.36.574,tareaTDv3,2020.2.5,Win32,60,,,,right,0,12.636465,0,58,58,6,1,10000,0,40000,10,,
,,,,,,,,,,,,,,,,,,,,,,002,84,2020-11-13_09h49.36.574,tareaTDv3,2020.2.5,Win32,60,,,,left,1,1.252165,0,59,59,24,1,10000,0,149000,89,,
,,,,,,,,,,,,,,,,,,,,,,002,84,2020-11-13_09h49.36.574,tareaTDv3,2020.2.5,Win32,60,,,,right,1,1.983335,0,60,60,46,1,5000,0,36000,61,,
,,,,,,,,,,,,,,,,,,,,,,002,84,2020-11-13_09h49.36.574,tareaTDv3,2020.2.5,Win32,60,,,,right,1,3.888275,0,61,61,28,1,10000,0,109000,149,,
,,,,,,,,,,,,,,,,,,,,,,002,84,2020-11-13_09h49.36.574,tareaTDv3,2020.2.5,Win32,60,,,,right,1,1.208735,0,62,62,23,1,10000,0,110000,90,,
,,,,,,,,,,,,,,,,,,,,,,002,84,2020-11-13_09h49.36.574,tareaTDv3,2020.2.5,Win32,60,,,,right,1,0.81702,0,63,63,49,1,5000,0,149000,59,,
,,,,,,,,,,,,,,,,,,,,,,002,84,2020-11-13_09h49.36.574,tareaTDv3,2020.2.5,Win32,60,,,,right,1,0.750235,0,64,64,63,1,25000,0,125000,4,,
,,,,,,,,,,,,,,,,,,,,,,002,84,2020-11-13_09h49.36.574,tareaTDv3,2020.2.5,Win32,60,,,,left,0,3.48087,0,65,65,35,1,5000,0,15000,11,,
,,,,,,,,,,,,,,,,,,,,,,002,84,2020-11-13_09h49.36.574,tareaTDv3,2020.2.5,Win32,60,,,,right,0,3.06889,0,66,66,80,1,25000,0,35000,90,,
,,,,,,,,,,,,,,,,,,,,,,002,84,2020-11-13_09h49.36.574,tareaTDv3,2020.2.5,Win32,60,,,,right,0,2.85498,0,67,67,41,1,5000,0,35000,31,,
,,,,,,,,,,,,,,,,,,,,,,002,84,2020-11-13_09h49.36.574,tareaTDv3,2020.2.5,Win32,60,,,,left,1,2.072855,0,68,68,17,1,10000,0,60000,60,,
,,,,,,,,,,,,,,,,,,,,,,002,84,2020-11-13_09h49.36.574,tareaTDv3,2020.2.5,Win32,60,,,,left,1,1.933845,0,69,69,39,1,5000,0,149000,10,,
,,,,,,,,,,,,,,,,,,,,,,002,84,2020-11-13_09h49.36.574,tareaTDv3,2020.2.5,Win32,60,,,,left,1,3.51709,0,70,70,78,1,25000,0,125000,59,,
,,,,,,,,,,,,,,,,,,,,,,002,84,2020-11-13_09h49.36.574,tareaTDv3,2020.2.5,Win32,60,,,,right,1,8.348405,0,71,71,68,1,25000,0,125000,9,,
,,,,,,,,,,,,,,,,,,,,,,002,84,2020-11-13_09h49.36.574,tareaTDv3,2020.2.5,Win32,60,,,,left,1,4.46583,0,72,72,72,1,25000,0,75000,31,,
,,,,,,,,,,,,,,,,,,,,,,002,84,2020-11-13_09h49.36.574,tareaTDv3,2020.2.5,Win32,60,,,,right,1,0.95706,0,73,73,43,1,5000,0,106000,29,,
,,,,,,,,,,,,,,,,,,,,,,002,84,2020-11-13_09h49.36.574,tareaTDv3,2020.2.5,Win32,60,,,,right,1,0.784575,0,74,74,33,1,5000,0,104000,5,,
,,,,,,,,,,,,,,,,,,,,,,002,84,2020-11-13_09h49.36.574,tareaTDv3,2020.2.5,Win32,60,,,,right,1,1.981875,0,75,75,42,1,5000,0,56000,29,,
,,,,,,,,,,,,,,,,,,,,,,002,84,2020-11-13_09h49.36.574,tareaTDv3,2020.2.5,Win32,60,,,,right,0,1.252375,0,76,76,15,1,10000,0,20000,59,,
,,,,,,,,,,,,,,,,,,,,,,002,84,2020-11-13_09h49.36.574,tareaTDv3,2020.2.5,Win32,60,,,,left,0,1.55724,0,77,77,87,1,25000,0,75000,151,,
,,,,,,,,,,,,,,,,,,,,,,002,84,2020-11-13_09h49.36.574,tareaTDv3,2020.2.5,Win32,60,,,,right,1,2.610585,0,78,78,44,1,5000,0,150000,30,,
,,,,,,,,,,,,,,,,,,,,,,002,84,2020-11-13_09h49.36.574,tareaTDv3,2020.2.5,Win32,60,,,,left,1,1.303945,0,79,79,4,1,10000,0,150000,5,,
,,,,,,,,,,,,,,,,,,,,,,002,84,2020-11-13_09h49.36.574,tareaTDv3,2020.2.5,Win32,60,,,,right,0,2.898475,0,80,80,88,1,25000,0,125000,149,,
,,,,,,,,,,,,,,,,,,,,,,002,84,2020-11-13_09h49.36.574,tareaTDv3,2020.2.5,Win32,60,,,,left,1,0.70477,0,81,81,76,1,25000,0,55000,60,,
,,,,,,,,,,,,,,,,,,,,,,002,84,2020-11-13_09h49.36.574,tareaTDv3,2020.2.5,Win32,60,,,,right,0,1.359465,0,82,82,75,1,25000,0,35000,60,,
,,,,,,,,,,,,,,,,,,,,,,002,84,2020-11-13_09h49.36.574,tareaTDv3,2020.2.5,Win32,60,,,,right,1,0.91632,0,83,83,64,1,25000,0,150000,4,,
,,,,,,,,,,,,,,,,,,,,,,002,84,2020-11-13_09h49.36.574,tareaTDv3,2020.2.5,Win32,60,,,,right,1,1.457655,0,84,84,13,1,10000,0,111000,30,,
,,,,,,,,,,,,,,,,,,,,,,002,84,2020-11-13_09h49.36.574,tareaTDv3,2020.2.5,Win32,60,,,,right,0,2.916715,0,85,85,26,1,10000,0,39000,150,,
,,,,,,,,,,,,,,,,,,,,,,002,84,2020-11-13_09h49.36.574,tareaTDv3,2020.2.5,Win32,60,,,,right,0,1.471915,0,86,86,86,1,25000,0,55000,151,,
,,,,,,,,,,,,,,,,,,,,,,002,84,2020-11-13_09h49.36.574,tareaTDv3,2020.2.5,Win32,60,,,,left,1,2.14912,0,87,87,67,1,25000,0,75000,10,,
,,,,,,,,,,,,,,,,,,,,,,002,84,2020-11-13_09h49.36.574,tareaTDv3,2020.2.5,Win32,60,,,,left,1,2.79849,0,88,88,30,1,5000,0,16000,4,,
,,,,,,,,,,,,,,,,,,,,,,002,84,2020-11-13_09h49.36.574,tareaTDv3,2020.2.5,Win32,60,,,,right,0,0.943485,0,89,89,20,1,10000,0,20000,90,,
,,,,,,,,,,,,,,,,,,,,,,002,84,2020-11-13_09h49.36.574,tareaTDv3,2020.2.5,Win32,60,,,,,,,,,,,,,,,,right,1.51877
