key1.keys,key1.rt,key2.keys,key2.rt,key2_2.keys,key2_2.rt,key2_3.keys,key2_3.rt,key3.keys,key3.rt,key4.keys,key4.rt,respP.keys,respP.corr,respP.rt,Practice.thisRepN,Practice.thisTrialN,Practice.thisN,Practice.thisIndex,Practice.ran,ssAmount,llAmount,llDelay,session,participant,date,expName,psychopyVersion,OS,frameRate,key5.keys,key5.rt,respT.keys,respT.corr,respT.rt,trials.thisRepN,trials.thisTrialN,trials.thisN,trials.thisIndex,trials.ran,ss_Amt,ss_Delay,ll_Amt,ll_Delay,key_resp_4.keys,key_resp_4.rt
space,2.1978,space,6.5312,space,0.9494,space,3.4751,right,8.0409,space,1.6146,left,0,7.0777,0,0,0,2,1,10000,19000,89,07-09-22,F457,2022-09-07_08h25.26.933,tareaTDv3,2020.2.5,Win32,60,,,,,,,,,,,,,,,,
,,,,,,,,,,,,right,1,9.2613,0,1,1,1,1,25000,35000,150,07-09-22,F457,2022-09-07_08h25.26.933,tareaTDv3,2020.2.5,Win32,60,,,,,,,,,,,,,,,,
,,,,,,,,,,,,left,1,5.4039,0,2,2,0,1,10000,109000,9,07-09-22,F457,2022-09-07_08h25.26.933,tareaTDv3,2020.2.5,Win32,60,,,,,,,,,,,,,,,,
,,,,,,,,,,,,,,,,,,,,,,,07-09-22,F457,2022-09-07_08h25.26.933,tareaTDv3,2020.2.5,Win32,60,g,10.4931,left,1,8.2066,0,0,0,63,1,25000,0,125000,4,,
,,,,,,,,,,,,,,,,,,,,,,,07-09-22,F457,2022-09-07_08h25.26.933,tareaTDv3,2020.2.5,Win32,60,,,right,1,3.5464,0,1,1,18,1,10000,0,110000,60,,
,,,,,,,,,,,,,,,,,,,,,,,07-09-22,F457,2022-09-07_08h25.26.933,tareaTDv3,2020.2.5,Win32,60,,,right,1,2.2385,0,2,2,43,1,5000,0,106000,29,,
,,,,,,,,,,,,,,,,,,,,,,,07-09-22,F457,2022-09-07_08h25.26.933,tareaTDv3,2020.2.5,Win32,60,,,right,1,1.9317,0,3,3,42,1,5000,0,56000,29,,
,,,,,,,,,,,,,,,,,,,,,,,07-09-22,F457,2022-09-07_08h25.26.933,tareaTDv3,2020.2.5,Win32,60,,,left,1,2.9086,0,4,4,12,1,10000,0,60000,29,,
,,,,,,,,,,,,,,,,,,,,,,,07-09-22,F457,2022-09-07_08h25.26.933,tareaTDv3,2020.2.5,Win32,60,,,right,1,2.0675,0,5,5,31,1,5000,0,35000,6,,
,,,,,,,,,,,,,,,,,,,,,,,07-09-22,F457,2022-09-07_08h25.26.933,tareaTDv3,2020.2.5,Win32,60,,,right,0,3.7515,0,6,6,75,1,25000,0,35000,60,,
,,,,,,,,,,,,,,,,,,,,,,,07-09-22,F457,2022-09-07_08h25.26.933,tareaTDv3,2020.2.5,Win32,60,,,right,0,1.8228,0,7,7,20,1,10000,0,20000,90,,
,,,,,,,,,,,,,,,,,,,,,,,07-09-22,F457,2022-09-07_08h25.26.933,tareaTDv3,2020.2.5,Win32,60,,,right,0,2.4124,0,8,8,87,1,25000,0,75000,151,,
,,,,,,,,,,,,,,,,,,,,,,,07-09-22,F457,2022-09-07_08h25.26.933,tareaTDv3,2020.2.5,Win32,60,,,left,0,4.4741,0,9,9,89,1,25000,0,150000,150,,
,,,,,,,,,,,,,,,,,,,,,,,07-09-22,F457,2022-09-07_08h25.26.933,tareaTDv3,2020.2.5,Win32,60,,,right,1,3.3386,0,10,10,0,1,10000,0,20000,5,,
,,,,,,,,,,,,,,,,,,,,,,,07-09-22,F457,2022-09-07_08h25.26.933,tareaTDv3,2020.2.5,Win32,60,,,right,1,2.2484,0,11,11,4,1,10000,0,150000,5,,
,,,,,,,,,,,,,,,,,,,,,,,07-09-22,F457,2022-09-07_08h25.26.933,tareaTDv3,2020.2.5,Win32,60,,,left,1,2.5017,0,12,12,8,1,10000,0,111000,10,,
,,,,,,,,,,,,,,,,,,,,,,,07-09-22,F457,2022-09-07_08h25.26.933,tareaTDv3,2020.2.5,Win32,60,,,right,1,3.6723,0,13,13,19,1,10000,0,149000,61,,
,,,,,,,,,,,,,,,,,,,,,,,07-09-22,F457,2022-09-07_08h25.26.933,tareaTDv3,2020.2.5,Win32,60,,,right,1,4.6764,0,14,14,38,1,5000,0,104000,10,,
,,,,,,,,,,,,,,,,,,,,,,,07-09-22,F457,2022-09-07_08h25.26.933,tareaTDv3,2020.2.5,Win32,60,,,left,1,4.2561,0,15,15,30,1,5000,0,16000,4,,
,,,,,,,,,,,,,,,,,,,,,,,07-09-22,F457,2022-09-07_08h25.26.933,tareaTDv3,2020.2.5,Win32,60,,,right,1,2.1047,0,16,16,9,1,10000,0,151000,11,,
,,,,,,,,,,,,,,,,,,,,,,,07-09-22,F457,2022-09-07_08h25.26.933,tareaTDv3,2020.2.5,Win32,60,,,right,0,2.4223,0,17,17,85,1,25000,0,35000,150,,
,,,,,,,,,,,,,,,,,,,,,,,07-09-22,F457,2022-09-07_08h25.26.933,tareaTDv3,2020.2.5,Win32,60,,,right,0,2.2696,0,18,18,51,1,5000,0,35000,89,,
,,,,,,,,,,,,,,,,,,,,,,,07-09-22,F457,2022-09-07_08h25.26.933,tareaTDv3,2020.2.5,Win32,60,,,right,0,0.817,0,19,19,23,1,10000,0,110000,90,,
,,,,,,,,,,,,,,,,,,,,,,,07-09-22,F457,2022-09-07_08h25.26.933,tareaTDv3,2020.2.5,Win32,60,,,right,0,2.6311,0,20,20,59,1,5000,0,151000,150,,
,,,,,,,,,,,,,,,,,,,,,,,07-09-22,F457,2022-09-07_08h25.26.933,tareaTDv3,2020.2.5,Win32,60,,,right,0,1.7547,0,21,21,25,1,10000,0,10000,150,,
,,,,,,,,,,,,,,,,,,,,,,,07-09-22,F457,2022-09-07_08h25.26.933,tareaTDv3,2020.2.5,Win32,60,,,left,1,5.0212,0,22,22,78,1,25000,0,125000,59,,
,,,,,,,,,,,,,,,,,,,,,,,07-09-22,F457,2022-09-07_08h25.26.933,tareaTDv3,2020.2.5,Win32,60,,,right,0,15.6101,0,23,23,48,1,5000,0,105000,60,,
,,,,,,,,,,,,,,,,,,,,,,,07-09-22,F457,2022-09-07_08h25.26.933,tareaTDv3,2020.2.5,Win32,60,,,right,1,5.6004,0,24,24,53,1,5000,0,104000,90,,
,,,,,,,,,,,,,,,,,,,,,,,07-09-22,F457,2022-09-07_08h25.26.933,tareaTDv3,2020.2.5,Win32,60,,,right,0,1.7173,0,25,25,7,1,10000,0,59000,9,,
,,,,,,,,,,,,,,,,,,,,,,,07-09-22,F457,2022-09-07_08h25.26.933,tareaTDv3,2020.2.5,Win32,60,,,left,0,1.0273,0,26,26,26,1,10000,0,39000,150,,
,,,,,,,,,,,,,,,,,,,,,,,07-09-22,F457,2022-09-07_08h25.26.933,tareaTDv3,2020.2.5,Win32,60,,,right,1,2.2291,0,27,27,10,1,10000,0,21000,31,,
,,,,,,,,,,,,,,,,,,,,,,,07-09-22,F457,2022-09-07_08h25.26.933,tareaTDv3,2020.2.5,Win32,60,,,left,0,2.1863,0,28,28,21,1,10000,0,40000,91,,
,,,,,,,,,,,,,,,,,,,,,,,07-09-22,F457,2022-09-07_08h25.26.933,tareaTDv3,2020.2.5,Win32,60,,,left,1,6.4127,0,29,29,61,1,25000,0,55000,6,,
,,,,,,,,,,,,,,,,,,,,,,,07-09-22,F457,2022-09-07_08h25.26.933,tareaTDv3,2020.2.5,Win32,60,,,right,1,4.0753,0,30,30,69,1,25000,0,150000,9,,
,,,,,,,,,,,,,,,,,,,,,,,07-09-22,F457,2022-09-07_08h25.26.933,tareaTDv3,2020.2.5,Win32,60,,,left,0,13.2249,0,31,31,5,1,10000,0,19000,11,,
,,,,,,,,,,,,,,,,,,,,,,,07-09-22,F457,2022-09-07_08h25.26.933,tareaTDv3,2020.2.5,Win32,60,,,left,1,3.9301,0,32,32,36,1,5000,0,36000,9,,
,,,,,,,,,,,,,,,,,,,,,,,07-09-22,F457,2022-09-07_08h25.26.933,tareaTDv3,2020.2.5,Win32,60,,,left,0,1.757,0,33,33,15,1,10000,0,20000,59,,
,,,,,,,,,,,,,,,,,,,,,,,07-09-22,F457,2022-09-07_08h25.26.933,tareaTDv3,2020.2.5,Win32,60,,,right,0,2.177,0,34,34,41,1,5000,0,35000,31,,
,,,,,,,,,,,,,,,,,,,,,,,07-09-22,F457,2022-09-07_08h25.26.933,tareaTDv3,2020.2.5,Win32,60,,,left,0,1.5573,0,35,35,81,1,25000,0,55000,90,,
,,,,,,,,,,,,,,,,,,,,,,,07-09-22,F457,2022-09-07_08h25.26.933,tareaTDv3,2020.2.5,Win32,60,,,right,1,3.5832,0,36,36,60,1,25000,0,35000,5,,
,,,,,,,,,,,,,,,,,,,,,,,07-09-22,F457,2022-09-07_08h25.26.933,tareaTDv3,2020.2.5,Win32,60,,,right,0,3.4475,0,37,37,35,1,5000,0,15000,11,,
,,,,,,,,,,,,,,,,,,,,,,,07-09-22,F457,2022-09-07_08h25.26.933,tareaTDv3,2020.2.5,Win32,60,,,left,0,2.7428,0,38,38,72,1,25000,0,75000,31,,
,,,,,,,,,,,,,,,,,,,,,,,07-09-22,F457,2022-09-07_08h25.26.933,tareaTDv3,2020.2.5,Win32,60,,,left,1,2.5071,0,39,39,74,1,25000,0,150000,29,,
,,,,,,,,,,,,,,,,,,,,,,,07-09-22,F457,2022-09-07_08h25.26.933,tareaTDv3,2020.2.5,Win32,60,,,right,1,7.6657,0,40,40,73,1,25000,0,125000,31,,
,,,,,,,,,,,,,,,,,,,,,,,07-09-22,F457,2022-09-07_08h25.26.933,tareaTDv3,2020.2.5,Win32,60,,,left,0,5.1838,0,41,41,40,1,5000,0,14000,31,,
,,,,,,,,,,,,,,,,,,,,,,,07-09-22,F457,2022-09-07_08h25.26.933,tareaTDv3,2020.2.5,Win32,60,,,right,1,5.1237,0,42,42,37,1,5000,0,56000,9,,
,,,,,,,,,,,,,,,,,,,,,,,07-09-22,F457,2022-09-07_08h25.26.933,tareaTDv3,2020.2.5,Win32,60,,,left,0,5.998,0,43,43,82,1,25000,0,75000,90,,
,,,,,,,,,,,,,,,,,,,,,,,07-09-22,F457,2022-09-07_08h25.26.933,tareaTDv3,2020.2.5,Win32,60,,,left,0,4.3047,0,44,44,45,1,5000,0,15000,61,,
,,,,,,,,,,,,,,,,,,,,,,,07-09-22,F457,2022-09-07_08h25.26.933,tareaTDv3,2020.2.5,Win32,60,,,right,0,2.7608,0,45,45,80,1,25000,0,35000,90,,
,,,,,,,,,,,,,,,,,,,,,,,07-09-22,F457,2022-09-07_08h25.26.933,tareaTDv3,2020.2.5,Win32,60,,,left,1,2.5149,0,46,46,33,1,5000,0,104000,5,,
,,,,,,,,,,,,,,,,,,,,,,,07-09-22,F457,2022-09-07_08h25.26.933,tareaTDv3,2020.2.5,Win32,60,,,left,0,0.9335,0,47,47,46,1,5000,0,36000,61,,
,,,,,,,,,,,,,,,,,,,,,,,07-09-22,F457,2022-09-07_08h25.26.933,tareaTDv3,2020.2.5,Win32,60,,,right,1,2.725,0,48,48,39,1,5000,0,149000,10,,
,,,,,,,,,,,,,,,,,,,,,,,07-09-22,F457,2022-09-07_08h25.26.933,tareaTDv3,2020.2.5,Win32,60,,,right,0,2.806,0,49,49,77,1,25000,0,75000,59,,
,,,,,,,,,,,,,,,,,,,,,,,07-09-22,F457,2022-09-07_08h25.26.933,tareaTDv3,2020.2.5,Win32,60,,,left,0,2.847,0,50,50,50,1,5000,0,15000,91,,
,,,,,,,,,,,,,,,,,,,,,,,07-09-22,F457,2022-09-07_08h25.26.933,tareaTDv3,2020.2.5,Win32,60,,,left,0,2.5915,0,51,51,27,1,10000,0,61000,150,,
,,,,,,,,,,,,,,,,,,,,,,,07-09-22,F457,2022-09-07_08h25.26.933,tareaTDv3,2020.2.5,Win32,60,,,left,1,2.1477,0,52,52,13,1,10000,0,111000,30,,
,,,,,,,,,,,,,,,,,,,,,,,07-09-22,F457,2022-09-07_08h25.26.933,tareaTDv3,2020.2.5,Win32,60,,,right,0,4.9451,0,53,53,24,1,10000,0,149000,89,,
,,,,,,,,,,,,,,,,,,,,,,,07-09-22,F457,2022-09-07_08h25.26.933,tareaTDv3,2020.2.5,Win32,60,,,right,0,3.8972,0,54,54,88,1,25000,0,125000,149,,
,,,,,,,,,,,,,,,,,,,,,,,07-09-22,F457,2022-09-07_08h25.26.933,tareaTDv3,2020.2.5,Win32,60,,,right,0,2.395,0,55,55,65,1,25000,0,35000,11,,
,,,,,,,,,,,,,,,,,,,,,,,07-09-22,F457,2022-09-07_08h25.26.933,tareaTDv3,2020.2.5,Win32,60,,,left,0,2.1776,0,56,56,52,1,5000,0,56000,89,,
,,,,,,,,,,,,,,,,,,,,,,,07-09-22,F457,2022-09-07_08h25.26.933,tareaTDv3,2020.2.5,Win32,60,,,right,0,1.9515,0,57,57,70,1,25000,0,35000,30,,
,,,,,,,,,,,,,,,,,,,,,,,07-09-22,F457,2022-09-07_08h25.26.933,tareaTDv3,2020.2.5,Win32,60,,,right,1,2.048,0,58,58,47,1,5000,0,56000,60,,
,,,,,,,,,,,,,,,,,,,,,,,07-09-22,F457,2022-09-07_08h25.26.933,tareaTDv3,2020.2.5,Win32,60,,,left,1,3.5661,0,59,59,64,1,25000,0,150000,4,,
,,,,,,,,,,,,,,,,,,,,,,,07-09-22,F457,2022-09-07_08h25.26.933,tareaTDv3,2020.2.5,Win32,60,,,right,1,2.6541,0,60,60,2,1,10000,0,61000,4,,
,,,,,,,,,,,,,,,,,,,,,,,07-09-22,F457,2022-09-07_08h25.26.933,tareaTDv3,2020.2.5,Win32,60,,,right,1,3.3373,0,61,61,14,1,10000,0,150000,30,,
,,,,,,,,,,,,,,,,,,,,,,,07-09-22,F457,2022-09-07_08h25.26.933,tareaTDv3,2020.2.5,Win32,60,,,left,0,5.8737,0,62,62,83,1,25000,0,125000,89,,
,,,,,,,,,,,,,,,,,,,,,,,07-09-22,F457,2022-09-07_08h25.26.933,tareaTDv3,2020.2.5,Win32,60,,,right,1,12.7875,0,63,63,34,1,5000,0,151000,4,,
,,,,,,,,,,,,,,,,,,,,,,,07-09-22,F457,2022-09-07_08h25.26.933,tareaTDv3,2020.2.5,Win32,60,,,right,0,1.6678,0,64,64,76,1,25000,0,55000,60,,
,,,,,,,,,,,,,,,,,,,,,,,07-09-22,F457,2022-09-07_08h25.26.933,tareaTDv3,2020.2.5,Win32,60,,,left,1,4.9074,0,65,65,6,1,10000,0,40000,10,,
,,,,,,,,,,,,,,,,,,,,,,,07-09-22,F457,2022-09-07_08h25.26.933,tareaTDv3,2020.2.5,Win32,60,,,right,0,3.3243,0,66,66,28,1,10000,0,109000,149,,
,,,,,,,,,,,,,,,,,,,,,,,07-09-22,F457,2022-09-07_08h25.26.933,tareaTDv3,2020.2.5,Win32,60,,,right,0,2.8096,0,67,67,11,1,10000,0,39000,29,,
,,,,,,,,,,,,,,,,,,,,,,,07-09-22,F457,2022-09-07_08h25.26.933,tareaTDv3,2020.2.5,Win32,60,,,left,1,4.6087,0,68,68,32,1,5000,0,54000,5,,
,,,,,,,,,,,,,,,,,,,,,,,07-09-22,F457,2022-09-07_08h25.26.933,tareaTDv3,2020.2.5,Win32,60,,,,0,,0,69,69,56,1,5000,0,35000,150,,
,,,,,,,,,,,,,,,,,,,,,,,07-09-22,F457,2022-09-07_08h25.26.933,tareaTDv3,2020.2.5,Win32,60,,,left,0,3.9806,0,70,70,71,1,25000,0,55000,30,,
,,,,,,,,,,,,,,,,,,,,,,,07-09-22,F457,2022-09-07_08h25.26.933,tareaTDv3,2020.2.5,Win32,60,,,right,1,2.5002,0,71,71,1,1,10000,0,39000,6,,
,,,,,,,,,,,,,,,,,,,,,,,07-09-22,F457,2022-09-07_08h25.26.933,tareaTDv3,2020.2.5,Win32,60,,,right,1,3.6552,0,72,72,49,1,5000,0,149000,59,,
,,,,,,,,,,,,,,,,,,,,,,,07-09-22,F457,2022-09-07_08h25.26.933,tareaTDv3,2020.2.5,Win32,60,,,left,0,1.3075,0,73,73,29,1,10000,0,151000,151,,
,,,,,,,,,,,,,,,,,,,,,,,07-09-22,F457,2022-09-07_08h25.26.933,tareaTDv3,2020.2.5,Win32,60,,,left,1,2.2251,0,74,74,67,1,25000,0,75000,10,,
,,,,,,,,,,,,,,,,,,,,,,,07-09-22,F457,2022-09-07_08h25.26.933,tareaTDv3,2020.2.5,Win32,60,,,left,0,3.1715,0,75,75,79,1,25000,0,150000,61,,
,,,,,,,,,,,,,,,,,,,,,,,07-09-22,F457,2022-09-07_08h25.26.933,tareaTDv3,2020.2.5,Win32,60,,,left,1,9.6832,0,76,76,44,1,5000,0,150000,30,,
,,,,,,,,,,,,,,,,,,,,,,,07-09-22,F457,2022-09-07_08h25.26.933,tareaTDv3,2020.2.5,Win32,60,,,right,0,3.6158,0,77,77,58,1,5000,0,106000,152,,
,,,,,,,,,,,,,,,,,,,,,,,07-09-22,F457,2022-09-07_08h25.26.933,tareaTDv3,2020.2.5,Win32,60,,,left,1,2.609,0,78,78,68,1,25000,0,125000,9,,
,,,,,,,,,,,,,,,,,,,,,,,07-09-22,F457,2022-09-07_08h25.26.933,tareaTDv3,2020.2.5,Win32,60,,,right,0,4.053,0,79,79,66,1,25000,0,55000,11,,
,,,,,,,,,,,,,,,,,,,,,,,07-09-22,F457,2022-09-07_08h25.26.933,tareaTDv3,2020.2.5,Win32,60,,,left,1,5.3181,0,80,80,3,1,10000,0,109000,5,,
,,,,,,,,,,,,,,,,,,,,,,,07-09-22,F457,2022-09-07_08h25.26.933,tareaTDv3,2020.2.5,Win32,60,,,left,0,1.3167,0,81,81,86,1,25000,0,55000,151,,
,,,,,,,,,,,,,,,,,,,,,,,07-09-22,F457,2022-09-07_08h25.26.933,tareaTDv3,2020.2.5,Win32,60,,,right,0,2.6141,0,82,82,16,1,10000,0,39000,59,,
,,,,,,,,,,,,,,,,,,,,,,,07-09-22,F457,2022-09-07_08h25.26.933,tareaTDv3,2020.2.5,Win32,60,,,right,0,1.1912,0,83,83,57,1,5000,0,55000,151,,
,,,,,,,,,,,,,,,,,,,,,,,07-09-22,F457,2022-09-07_08h25.26.933,tareaTDv3,2020.2.5,Win32,60,,,left,1,2.5877,0,84,84,62,1,25000,0,75000,5,,
,,,,,,,,,,,,,,,,,,,,,,,07-09-22,F457,2022-09-07_08h25.26.933,tareaTDv3,2020.2.5,Win32,60,,,right,1,6.6248,0,85,85,17,1,10000,0,60000,60,,
,,,,,,,,,,,,,,,,,,,,,,,07-09-22,F457,2022-09-07_08h25.26.933,tareaTDv3,2020.2.5,Win32,60,,,right,0,3.3974,0,86,86,55,1,5000,0,14000,149,,
,,,,,,,,,,,,,,,,,,,,,,,07-09-22,F457,2022-09-07_08h25.26.933,tareaTDv3,2020.2.5,Win32,60,,,right,1,3.0022,0,87,87,54,1,5000,0,150000,90,,
,,,,,,,,,,,,,,,,,,,,,,,07-09-22,F457,2022-09-07_08h25.26.933,tareaTDv3,2020.2.5,Win32,60,,,left,0,3.8172,0,88,88,22,1,10000,0,61000,89,,
,,,,,,,,,,,,,,,,,,,,,,,07-09-22,F457,2022-09-07_08h25.26.933,tareaTDv3,2020.2.5,Win32,60,,,left,0,2.6497,0,89,89,84,1,25000,0,150000,89,,
,,,,,,,,,,,,,,,,,,,,,,,07-09-22,F457,2022-09-07_08h25.26.933,tareaTDv3,2020.2.5,Win32,60,,,,,,,,,,,,,,,space,1.8725
