key1.keys,key1.rt,key2.keys,key2.rt,key2_2.keys,key2_2.rt,key2_3.keys,key2_3.rt,key3.keys,key3.rt,key4.keys,key4.rt,respP.keys,respP.corr,respP.rt,Practice.thisRepN,Practice.thisTrialN,Practice.thisN,Practice.thisIndex,Practice.ran,ssAmount,llAmount,llDelay,session,participant,date,expName,psychopyVersion,OS,frameRate,key5.keys,key5.rt,respT.keys,respT.corr,respT.rt,trials.thisRepN,trials.thisTrialN,trials.thisN,trials.thisIndex,trials.ran,ss_Amt,ss_Delay,ll_Amt,ll_Delay,key_resp_4.keys,key_resp_4.rt
space,54.3227,space,10.0526,space,2.4834,space,5.2959,left,5.3477,space,2.1844,left,0,3.3678,0,0,0,1,1,25000,35000,150,07-09-2022,f483,2022-09-07_08h47.37.688,tareaTDv3,2020.2.5,Win32,60,,,,,,,,,,,,,,,,
,,,,,,,,,,,,left,1,9.2953,0,1,1,0,1,10000,109000,9,07-09-2022,f483,2022-09-07_08h47.37.688,tareaTDv3,2020.2.5,Win32,60,,,,,,,,,,,,,,,,
,,,,,,,,,,,,right,0,5.364,0,2,2,2,1,10000,19000,89,07-09-2022,f483,2022-09-07_08h47.37.688,tareaTDv3,2020.2.5,Win32,60,,,,,,,,,,,,,,,,
,,,,,,,,,,,,,,,,,,,,,,,07-09-2022,f483,2022-09-07_08h47.37.688,tareaTDv3,2020.2.5,Win32,60,g,36.5522,right,1,5.3677,0,0,0,47,1,5000,0,56000,60,,
,,,,,,,,,,,,,,,,,,,,,,,07-09-2022,f483,2022-09-07_08h47.37.688,tareaTDv3,2020.2.5,Win32,60,,,right,1,5.7297,0,1,1,79,1,25000,0,150000,61,,
,,,,,,,,,,,,,,,,,,,,,,,07-09-2022,f483,2022-09-07_08h47.37.688,tareaTDv3,2020.2.5,Win32,60,,,right,1,8.5933,0,2,2,65,1,25000,0,35000,11,,
,,,,,,,,,,,,,,,,,,,,,,,07-09-2022,f483,2022-09-07_08h47.37.688,tareaTDv3,2020.2.5,Win32,60,,,left,1,5.8406,0,3,3,57,1,5000,0,55000,151,,
,,,,,,,,,,,,,,,,,,,,,,,07-09-2022,f483,2022-09-07_08h47.37.688,tareaTDv3,2020.2.5,Win32,60,,,right,0,3.8358,0,4,4,86,1,25000,0,55000,151,,
,,,,,,,,,,,,,,,,,,,,,,,07-09-2022,f483,2022-09-07_08h47.37.688,tareaTDv3,2020.2.5,Win32,60,,,right,0,6.2225,0,5,5,55,1,5000,0,14000,149,,
,,,,,,,,,,,,,,,,,,,,,,,07-09-2022,f483,2022-09-07_08h47.37.688,tareaTDv3,2020.2.5,Win32,60,,,left,1,10.162,0,6,6,88,1,25000,0,125000,149,,
,,,,,,,,,,,,,,,,,,,,,,,07-09-2022,f483,2022-09-07_08h47.37.688,tareaTDv3,2020.2.5,Win32,60,,,left,1,4.6038,0,7,7,16,1,10000,0,39000,59,,
,,,,,,,,,,,,,,,,,,,,,,,07-09-2022,f483,2022-09-07_08h47.37.688,tareaTDv3,2020.2.5,Win32,60,,,left,1,2.2529,0,8,8,52,1,5000,0,56000,89,,
,,,,,,,,,,,,,,,,,,,,,,,07-09-2022,f483,2022-09-07_08h47.37.688,tareaTDv3,2020.2.5,Win32,60,,,left,1,3.1696,0,9,9,74,1,25000,0,150000,29,,
,,,,,,,,,,,,,,,,,,,,,,,07-09-2022,f483,2022-09-07_08h47.37.688,tareaTDv3,2020.2.5,Win32,60,,,left,1,3.2098,0,10,10,66,1,25000,0,55000,11,,
,,,,,,,,,,,,,,,,,,,,,,,07-09-2022,f483,2022-09-07_08h47.37.688,tareaTDv3,2020.2.5,Win32,60,,,left,0,6.9979,0,11,11,50,1,5000,0,15000,91,,
,,,,,,,,,,,,,,,,,,,,,,,07-09-2022,f483,2022-09-07_08h47.37.688,tareaTDv3,2020.2.5,Win32,60,,,left,1,4.2964,0,12,12,64,1,25000,0,150000,4,,
,,,,,,,,,,,,,,,,,,,,,,,07-09-2022,f483,2022-09-07_08h47.37.688,tareaTDv3,2020.2.5,Win32,60,,,right,0,2.8551,0,13,13,20,1,10000,0,20000,90,,
,,,,,,,,,,,,,,,,,,,,,,,07-09-2022,f483,2022-09-07_08h47.37.688,tareaTDv3,2020.2.5,Win32,60,,,right,1,1.6415,0,14,14,49,1,5000,0,149000,59,,
,,,,,,,,,,,,,,,,,,,,,,,07-09-2022,f483,2022-09-07_08h47.37.688,tareaTDv3,2020.2.5,Win32,60,,,left,1,2.7144,0,15,15,46,1,5000,0,36000,61,,
,,,,,,,,,,,,,,,,,,,,,,,07-09-2022,f483,2022-09-07_08h47.37.688,tareaTDv3,2020.2.5,Win32,60,,,left,1,2.5663,0,16,16,82,1,25000,0,75000,90,,
,,,,,,,,,,,,,,,,,,,,,,,07-09-2022,f483,2022-09-07_08h47.37.688,tareaTDv3,2020.2.5,Win32,60,,,left,1,2.2502,0,17,17,63,1,25000,0,125000,4,,
,,,,,,,,,,,,,,,,,,,,,,,07-09-2022,f483,2022-09-07_08h47.37.688,tareaTDv3,2020.2.5,Win32,60,,,left,1,2.6267,0,18,18,4,1,10000,0,150000,5,,
,,,,,,,,,,,,,,,,,,,,,,,07-09-2022,f483,2022-09-07_08h47.37.688,tareaTDv3,2020.2.5,Win32,60,,,right,1,1.8994,0,19,19,14,1,10000,0,150000,30,,
,,,,,,,,,,,,,,,,,,,,,,,07-09-2022,f483,2022-09-07_08h47.37.688,tareaTDv3,2020.2.5,Win32,60,,,left,1,2.1068,0,20,20,81,1,25000,0,55000,90,,
,,,,,,,,,,,,,,,,,,,,,,,07-09-2022,f483,2022-09-07_08h47.37.688,tareaTDv3,2020.2.5,Win32,60,,,left,1,1.2305,0,21,21,53,1,5000,0,104000,90,,
,,,,,,,,,,,,,,,,,,,,,,,07-09-2022,f483,2022-09-07_08h47.37.688,tareaTDv3,2020.2.5,Win32,60,,,left,1,2.115,0,22,22,3,1,10000,0,109000,5,,
,,,,,,,,,,,,,,,,,,,,,,,07-09-2022,f483,2022-09-07_08h47.37.688,tareaTDv3,2020.2.5,Win32,60,,,left,1,4.7487,0,23,23,84,1,25000,0,150000,89,,
,,,,,,,,,,,,,,,,,,,,,,,07-09-2022,f483,2022-09-07_08h47.37.688,tareaTDv3,2020.2.5,Win32,60,,,left,1,2.6611,0,24,24,28,1,10000,0,109000,149,,
,,,,,,,,,,,,,,,,,,,,,,,07-09-2022,f483,2022-09-07_08h47.37.688,tareaTDv3,2020.2.5,Win32,60,,,left,1,15.9997,0,25,25,32,1,5000,0,54000,5,,
,,,,,,,,,,,,,,,,,,,,,,,07-09-2022,f483,2022-09-07_08h47.37.688,tareaTDv3,2020.2.5,Win32,60,,,right,1,4.5763,0,26,26,45,1,5000,0,15000,61,,
,,,,,,,,,,,,,,,,,,,,,,,07-09-2022,f483,2022-09-07_08h47.37.688,tareaTDv3,2020.2.5,Win32,60,,,right,1,2.1339,0,27,27,51,1,5000,0,35000,89,,
,,,,,,,,,,,,,,,,,,,,,,,07-09-2022,f483,2022-09-07_08h47.37.688,tareaTDv3,2020.2.5,Win32,60,,,left,1,1.9641,0,28,28,22,1,10000,0,61000,89,,
,,,,,,,,,,,,,,,,,,,,,,,07-09-2022,f483,2022-09-07_08h47.37.688,tareaTDv3,2020.2.5,Win32,60,,,left,1,5.9111,0,29,29,89,1,25000,0,150000,150,,
,,,,,,,,,,,,,,,,,,,,,,,07-09-2022,f483,2022-09-07_08h47.37.688,tareaTDv3,2020.2.5,Win32,60,,,left,1,2.6832,0,30,30,11,1,10000,0,39000,29,,
,,,,,,,,,,,,,,,,,,,,,,,07-09-2022,f483,2022-09-07_08h47.37.688,tareaTDv3,2020.2.5,Win32,60,,,left,1,3.4174,0,31,31,39,1,5000,0,149000,10,,
,,,,,,,,,,,,,,,,,,,,,,,07-09-2022,f483,2022-09-07_08h47.37.688,tareaTDv3,2020.2.5,Win32,60,,,left,1,3.7612,0,32,32,43,1,5000,0,106000,29,,
,,,,,,,,,,,,,,,,,,,,,,,07-09-2022,f483,2022-09-07_08h47.37.688,tareaTDv3,2020.2.5,Win32,60,,,right,1,4.2482,0,33,33,59,1,5000,0,151000,150,,
,,,,,,,,,,,,,,,,,,,,,,,07-09-2022,f483,2022-09-07_08h47.37.688,tareaTDv3,2020.2.5,Win32,60,,,right,1,1.2363,0,34,34,76,1,25000,0,55000,60,,
,,,,,,,,,,,,,,,,,,,,,,,07-09-2022,f483,2022-09-07_08h47.37.688,tareaTDv3,2020.2.5,Win32,60,,,right,1,1.4093,0,35,35,19,1,10000,0,149000,61,,
,,,,,,,,,,,,,,,,,,,,,,,07-09-2022,f483,2022-09-07_08h47.37.688,tareaTDv3,2020.2.5,Win32,60,,,right,1,1.2592,0,36,36,40,1,5000,0,14000,31,,
,,,,,,,,,,,,,,,,,,,,,,,07-09-2022,f483,2022-09-07_08h47.37.688,tareaTDv3,2020.2.5,Win32,60,,,left,1,2.2784,0,37,37,69,1,25000,0,150000,9,,
,,,,,,,,,,,,,,,,,,,,,,,07-09-2022,f483,2022-09-07_08h47.37.688,tareaTDv3,2020.2.5,Win32,60,,,right,1,1.3449,0,38,38,35,1,5000,0,15000,11,,
,,,,,,,,,,,,,,,,,,,,,,,07-09-2022,f483,2022-09-07_08h47.37.688,tareaTDv3,2020.2.5,Win32,60,,,right,1,2.8923,0,39,39,41,1,5000,0,35000,31,,
,,,,,,,,,,,,,,,,,,,,,,,07-09-2022,f483,2022-09-07_08h47.37.688,tareaTDv3,2020.2.5,Win32,60,,,right,1,1.0445,0,40,40,8,1,10000,0,111000,10,,
,,,,,,,,,,,,,,,,,,,,,,,07-09-2022,f483,2022-09-07_08h47.37.688,tareaTDv3,2020.2.5,Win32,60,,,left,1,0.9401,0,41,41,24,1,10000,0,149000,89,,
,,,,,,,,,,,,,,,,,,,,,,,07-09-2022,f483,2022-09-07_08h47.37.688,tareaTDv3,2020.2.5,Win32,60,,,left,1,6.8885,0,42,42,17,1,10000,0,60000,60,,
,,,,,,,,,,,,,,,,,,,,,,,07-09-2022,f483,2022-09-07_08h47.37.688,tareaTDv3,2020.2.5,Win32,60,,,left,1,1.7203,0,43,43,42,1,5000,0,56000,29,,
,,,,,,,,,,,,,,,,,,,,,,,07-09-2022,f483,2022-09-07_08h47.37.688,tareaTDv3,2020.2.5,Win32,60,,,left,1,2.6228,0,44,44,30,1,5000,0,16000,4,,
,,,,,,,,,,,,,,,,,,,,,,,07-09-2022,f483,2022-09-07_08h47.37.688,tareaTDv3,2020.2.5,Win32,60,,,left,1,0.6663,0,45,45,38,1,5000,0,104000,10,,
,,,,,,,,,,,,,,,,,,,,,,,07-09-2022,f483,2022-09-07_08h47.37.688,tareaTDv3,2020.2.5,Win32,60,,,right,1,1.0959,0,46,46,62,1,25000,0,75000,5,,
,,,,,,,,,,,,,,,,,,,,,,,07-09-2022,f483,2022-09-07_08h47.37.688,tareaTDv3,2020.2.5,Win32,60,,,left,1,1.6383,0,47,47,37,1,5000,0,56000,9,,
,,,,,,,,,,,,,,,,,,,,,,,07-09-2022,f483,2022-09-07_08h47.37.688,tareaTDv3,2020.2.5,Win32,60,,,left,1,0.7995,0,48,48,44,1,5000,0,150000,30,,
,,,,,,,,,,,,,,,,,,,,,,,07-09-2022,f483,2022-09-07_08h47.37.688,tareaTDv3,2020.2.5,Win32,60,,,left,1,10.4376,0,49,49,58,1,5000,0,106000,152,,
,,,,,,,,,,,,,,,,,,,,,,,07-09-2022,f483,2022-09-07_08h47.37.688,tareaTDv3,2020.2.5,Win32,60,,,right,1,1.1222,0,50,50,67,1,25000,0,75000,10,,
,,,,,,,,,,,,,,,,,,,,,,,07-09-2022,f483,2022-09-07_08h47.37.688,tareaTDv3,2020.2.5,Win32,60,,,left,0,2.4901,0,51,51,85,1,25000,0,35000,150,,
,,,,,,,,,,,,,,,,,,,,,,,07-09-2022,f483,2022-09-07_08h47.37.688,tareaTDv3,2020.2.5,Win32,60,,,left,1,2.3066,0,52,52,72,1,25000,0,75000,31,,
,,,,,,,,,,,,,,,,,,,,,,,07-09-2022,f483,2022-09-07_08h47.37.688,tareaTDv3,2020.2.5,Win32,60,,,right,1,1.3662,0,53,53,2,1,10000,0,61000,4,,
,,,,,,,,,,,,,,,,,,,,,,,07-09-2022,f483,2022-09-07_08h47.37.688,tareaTDv3,2020.2.5,Win32,60,,,right,1,0.9108,0,54,54,33,1,5000,0,104000,5,,
,,,,,,,,,,,,,,,,,,,,,,,07-09-2022,f483,2022-09-07_08h47.37.688,tareaTDv3,2020.2.5,Win32,60,,,right,1,1.7887,0,55,55,5,1,10000,0,19000,11,,
,,,,,,,,,,,,,,,,,,,,,,,07-09-2022,f483,2022-09-07_08h47.37.688,tareaTDv3,2020.2.5,Win32,60,,,right,1,2.4146,0,56,56,73,1,25000,0,125000,31,,
,,,,,,,,,,,,,,,,,,,,,,,07-09-2022,f483,2022-09-07_08h47.37.688,tareaTDv3,2020.2.5,Win32,60,,,left,0,1.9151,0,57,57,26,1,10000,0,39000,150,,
,,,,,,,,,,,,,,,,,,,,,,,07-09-2022,f483,2022-09-07_08h47.37.688,tareaTDv3,2020.2.5,Win32,60,,,right,1,0.5011,0,58,58,54,1,5000,0,150000,90,,
,,,,,,,,,,,,,,,,,,,,,,,07-09-2022,f483,2022-09-07_08h47.37.688,tareaTDv3,2020.2.5,Win32,60,,,left,1,1.5469,0,59,59,31,1,5000,0,35000,6,,
,,,,,,,,,,,,,,,,,,,,,,,07-09-2022,f483,2022-09-07_08h47.37.688,tareaTDv3,2020.2.5,Win32,60,,,left,1,0.7613,0,60,60,68,1,25000,0,125000,9,,
,,,,,,,,,,,,,,,,,,,,,,,07-09-2022,f483,2022-09-07_08h47.37.688,tareaTDv3,2020.2.5,Win32,60,,,right,1,1.3684,0,61,61,12,1,10000,0,60000,29,,
,,,,,,,,,,,,,,,,,,,,,,,07-09-2022,f483,2022-09-07_08h47.37.688,tareaTDv3,2020.2.5,Win32,60,,,left,1,2.0577,0,62,62,23,1,10000,0,110000,90,,
,,,,,,,,,,,,,,,,,,,,,,,07-09-2022,f483,2022-09-07_08h47.37.688,tareaTDv3,2020.2.5,Win32,60,,,left,0,1.9151,0,63,63,70,1,25000,0,35000,30,,
,,,,,,,,,,,,,,,,,,,,,,,07-09-2022,f483,2022-09-07_08h47.37.688,tareaTDv3,2020.2.5,Win32,60,,,right,1,1.4951,0,64,64,78,1,25000,0,125000,59,,
,,,,,,,,,,,,,,,,,,,,,,,07-09-2022,f483,2022-09-07_08h47.37.688,tareaTDv3,2020.2.5,Win32,60,,,left,1,8.2837,0,65,65,29,1,10000,0,151000,151,,
,,,,,,,,,,,,,,,,,,,,,,,07-09-2022,f483,2022-09-07_08h47.37.688,tareaTDv3,2020.2.5,Win32,60,,,right,1,1.1188,0,66,66,36,1,5000,0,36000,9,,
,,,,,,,,,,,,,,,,,,,,,,,07-09-2022,f483,2022-09-07_08h47.37.688,tareaTDv3,2020.2.5,Win32,60,,,left,1,0.855,0,67,67,48,1,5000,0,105000,60,,
,,,,,,,,,,,,,,,,,,,,,,,07-09-2022,f483,2022-09-07_08h47.37.688,tareaTDv3,2020.2.5,Win32,60,,,right,1,1.1922,0,68,68,25,1,10000,0,10000,150,,
,,,,,,,,,,,,,,,,,,,,,,,07-09-2022,f483,2022-09-07_08h47.37.688,tareaTDv3,2020.2.5,Win32,60,,,right,1,1.479,0,69,69,61,1,25000,0,55000,6,,
,,,,,,,,,,,,,,,,,,,,,,,07-09-2022,f483,2022-09-07_08h47.37.688,tareaTDv3,2020.2.5,Win32,60,,,right,1,1.0029,0,70,70,6,1,10000,0,40000,10,,
,,,,,,,,,,,,,,,,,,,,,,,07-09-2022,f483,2022-09-07_08h47.37.688,tareaTDv3,2020.2.5,Win32,60,,,left,1,2.5574,0,71,71,80,1,25000,0,35000,90,,
,,,,,,,,,,,,,,,,,,,,,,,07-09-2022,f483,2022-09-07_08h47.37.688,tareaTDv3,2020.2.5,Win32,60,,,left,1,2.1923,0,72,72,15,1,10000,0,20000,59,,
,,,,,,,,,,,,,,,,,,,,,,,07-09-2022,f483,2022-09-07_08h47.37.688,tareaTDv3,2020.2.5,Win32,60,,,left,1,4.596,0,73,73,10,1,10000,0,21000,31,,
,,,,,,,,,,,,,,,,,,,,,,,07-09-2022,f483,2022-09-07_08h47.37.688,tareaTDv3,2020.2.5,Win32,60,,,left,0,3.9902,0,74,74,27,1,10000,0,61000,150,,
,,,,,,,,,,,,,,,,,,,,,,,07-09-2022,f483,2022-09-07_08h47.37.688,tareaTDv3,2020.2.5,Win32,60,,,left,1,3.2038,0,75,75,1,1,10000,0,39000,6,,
,,,,,,,,,,,,,,,,,,,,,,,07-09-2022,f483,2022-09-07_08h47.37.688,tareaTDv3,2020.2.5,Win32,60,,,left,1,7.0432,0,76,76,18,1,10000,0,110000,60,,
,,,,,,,,,,,,,,,,,,,,,,,07-09-2022,f483,2022-09-07_08h47.37.688,tareaTDv3,2020.2.5,Win32,60,,,left,0,2.4854,0,77,77,83,1,25000,0,125000,89,,
,,,,,,,,,,,,,,,,,,,,,,,07-09-2022,f483,2022-09-07_08h47.37.688,tareaTDv3,2020.2.5,Win32,60,,,right,0,1.5317,0,78,78,71,1,25000,0,55000,30,,
,,,,,,,,,,,,,,,,,,,,,,,07-09-2022,f483,2022-09-07_08h47.37.688,tareaTDv3,2020.2.5,Win32,60,,,left,1,2.1981,0,79,79,56,1,5000,0,35000,150,,
,,,,,,,,,,,,,,,,,,,,,,,07-09-2022,f483,2022-09-07_08h47.37.688,tareaTDv3,2020.2.5,Win32,60,,,left,0,0.9322,0,80,80,87,1,25000,0,75000,151,,
,,,,,,,,,,,,,,,,,,,,,,,07-09-2022,f483,2022-09-07_08h47.37.688,tareaTDv3,2020.2.5,Win32,60,,,right,0,1.5056,0,81,81,75,1,25000,0,35000,60,,
,,,,,,,,,,,,,,,,,,,,,,,07-09-2022,f483,2022-09-07_08h47.37.688,tareaTDv3,2020.2.5,Win32,60,,,right,0,4.8602,0,82,82,21,1,10000,0,40000,91,,
,,,,,,,,,,,,,,,,,,,,,,,07-09-2022,f483,2022-09-07_08h47.37.688,tareaTDv3,2020.2.5,Win32,60,,,left,0,0.4164,0,83,83,60,1,25000,0,35000,5,,
,,,,,,,,,,,,,,,,,,,,,,,07-09-2022,f483,2022-09-07_08h47.37.688,tareaTDv3,2020.2.5,Win32,60,,,left,0,0.3596,0,84,84,77,1,25000,0,75000,59,,
,,,,,,,,,,,,,,,,,,,,,,,07-09-2022,f483,2022-09-07_08h47.37.688,tareaTDv3,2020.2.5,Win32,60,,,right,0,0.0578,0,85,85,0,1,10000,0,20000,5,,
,,,,,,,,,,,,,,,,,,,,,,,07-09-2022,f483,2022-09-07_08h47.37.688,tareaTDv3,2020.2.5,Win32,60,,,right,1,1.2957,0,86,86,7,1,10000,0,59000,9,,
,,,,,,,,,,,,,,,,,,,,,,,07-09-2022,f483,2022-09-07_08h47.37.688,tareaTDv3,2020.2.5,Win32,60,,,right,1,1.363,0,87,87,34,1,5000,0,151000,4,,
,,,,,,,,,,,,,,,,,,,,,,,07-09-2022,f483,2022-09-07_08h47.37.688,tareaTDv3,2020.2.5,Win32,60,,,left,1,1.0143,0,88,88,9,1,10000,0,151000,11,,
,,,,,,,,,,,,,,,,,,,,,,,07-09-2022,f483,2022-09-07_08h47.37.688,tareaTDv3,2020.2.5,Win32,60,,,right,0,0.4752,0,89,89,13,1,10000,0,111000,30,,
,,,,,,,,,,,,,,,,,,,,,,,07-09-2022,f483,2022-09-07_08h47.37.688,tareaTDv3,2020.2.5,Win32,60,,,,,,,,,,,,,,,right,1.0338
