ssAmount,llAmount,llDelay,ss_am,ss_del,ll_am,ll_del,Practice.thisRepN,Practice.thisTrialN,Practice.thisN,Practice.thisIndex,trials.thisRepN,trials.thisTrialN,trials.thisN,trials.thisIndex,key1.keys,key1.rt,key2.keys,key2.rt,key2_2.keys,key2_2.rt,key2_3.keys,key2_3.rt,key3.keys,key3.rt,key4.keys,key4.rt,respP.keys,respP.corr,respP.rt,key5.keys,key5.rt,respT.keys,respT.corr,respT.rt,session,psychopyVersion,frameRate,expName,date,participant,
,,,,,,,,,,,,,,,space,5.01556971483,,,,,,,,,,,,,,,,,,,001,3.0.3,60.0594940593884,ninosDelConv2,2019_May_09_0811,101,
,,,,,,,,,,,,,,,,,space,24.1456761505,,,,,,,,,,,,,,,,,001,3.0.3,60.0594940593884,ninosDelConv2,2019_May_09_0811,101,
,,,,,,,,,,,,,,,,,,,space,21.6467209677,,,,,,,,,,,,,,,001,3.0.3,60.0594940593884,ninosDelConv2,2019_May_09_0811,101,
,,,,,,,,,,,,,,,,,,,,,space,56.1385395168,,,,,,,,,,,,,001,3.0.3,60.0594940593884,ninosDelConv2,2019_May_09_0811,101,
,,,,,,,,,,,,,,,,,,,,,,,left,5.99872771231,,,,,,,,,,,001,3.0.3,60.0594940593884,ninosDelConv2,2019_May_09_0811,101,
,,,,,,,,,,,,,,,,,,,,,,,,,space,4.43444275111,,,,,,,,,001,3.0.3,60.0594940593884,ninosDelConv2,2019_May_09_0811,101,
10,109,9,,,,,0,0,0,0,,,,,,,,,,,,,,,,,left,1,18.4478410948,,,,,,001,3.0.3,60.0594940593884,ninosDelConv2,2019_May_09_0811,101,
25,35,150,,,,,0,1,1,1,,,,,,,,,,,,,,,,,right,0,5.36683930364,,,,,,001,3.0.3,60.0594940593884,ninosDelConv2,2019_May_09_0811,101,
10,19,89,,,,,0,2,2,2,,,,,,,,,,,,,,,,,right,0,4.49853571272,,,,,,001,3.0.3,60.0594940593884,ninosDelConv2,2019_May_09_0811,101,
,,,,,,,,,,,,,,,,,,,,,,,,,,,,,,g,145.222651858,,,,001,3.0.3,60.0594940593884,ninosDelConv2,2019_May_09_0811,101,
,,,5,0,105.0,60,,,,,0,0,0,48,,,,,,,,,,,,,,,,,,right,1,3.59964838577,001,3.0.3,60.0594940593884,ninosDelConv2,2019_May_09_0811,101,
,,,25,0,75.0,90,,,,,0,1,1,82,,,,,,,,,,,,,,,,,,right,1,3.31529032579,001,3.0.3,60.0594940593884,ninosDelConv2,2019_May_09_0811,101,
,,,25,0,75.0,31,,,,,0,2,2,72,,,,,,,,,,,,,,,,,,left,0,1.53379632579,001,3.0.3,60.0594940593884,ninosDelConv2,2019_May_09_0811,101,
,,,5,0,151.0,4,,,,,0,3,3,34,,,,,,,,,,,,,,,,,,right,1,1.78369929781,001,3.0.3,60.0594940593884,ninosDelConv2,2019_May_09_0811,101,
,,,10,0,40.0,10,,,,,0,4,4,6,,,,,,,,,,,,,,,,,,right,1,4.6669850382,001,3.0.3,60.0594940593884,ninosDelConv2,2019_May_09_0811,101,
,,,5,0,56.0,9,,,,,0,5,5,37,,,,,,,,,,,,,,,,,,right,1,1.99991004029,001,3.0.3,60.0594940593884,ninosDelConv2,2019_May_09_0811,101,
,,,5,0,106.0,29,,,,,0,6,6,43,,,,,,,,,,,,,,,,,,right,1,1.53235080186,001,3.0.3,60.0594940593884,ninosDelConv2,2019_May_09_0811,101,
,,,25,0,35.0,30,,,,,0,7,7,70,,,,,,,,,,,,,,,,,,left,0,1.467243094,001,3.0.3,60.0594940593884,ninosDelConv2,2019_May_09_0811,101,
,,,5,0,15.0,61,,,,,0,8,8,45,,,,,,,,,,,,,,,,,,right,0,2.65061648143,001,3.0.3,60.0594940593884,ninosDelConv2,2019_May_09_0811,101,
,,,10,0,20.0,59,,,,,0,9,9,15,,,,,,,,,,,,,,,,,,left,0,2.18332866393,001,3.0.3,60.0594940593884,ninosDelConv2,2019_May_09_0811,101,
,,,25,0,55.0,11,,,,,0,10,10,66,,,,,,,,,,,,,,,,,,right,1,3.01649450092,001,3.0.3,60.0594940593884,ninosDelConv2,2019_May_09_0811,101,
,,,10,0,20.0,90,,,,,0,11,11,20,,,,,,,,,,,,,,,,,,right,0,2.89950522175,001,3.0.3,60.0594940593884,ninosDelConv2,2019_May_09_0811,101,
,,,10,0,151.0,11,,,,,0,12,12,9,,,,,,,,,,,,,,,,,,right,1,1.45008854615,001,3.0.3,60.0594940593884,ninosDelConv2,2019_May_09_0811,101,
,,,10,0,149.0,61,,,,,0,13,13,19,,,,,,,,,,,,,,,,,,left,1,1.61662558466,001,3.0.3,60.0594940593884,ninosDelConv2,2019_May_09_0811,101,
,,,10,0,109.0,5,,,,,0,14,14,3,,,,,,,,,,,,,,,,,,left,1,2.13316403795,001,3.0.3,60.0594940593884,ninosDelConv2,2019_May_09_0811,101,
,,,25,0,35.0,150,,,,,0,15,15,85,,,,,,,,,,,,,,,,,,right,0,2.83315452794,001,3.0.3,60.0594940593884,ninosDelConv2,2019_May_09_0811,101,
,,,10,0,61.0,150,,,,,0,16,16,27,,,,,,,,,,,,,,,,,,left,0,1.96625585062,001,3.0.3,60.0594940593884,ninosDelConv2,2019_May_09_0811,101,
,,,25,0,55.0,60,,,,,0,17,17,76,,,,,,,,,,,,,,,,,,left,1,2.64975595241,001,3.0.3,60.0594940593884,ninosDelConv2,2019_May_09_0811,101,
,,,5,0,150.0,90,,,,,0,18,18,54,,,,,,,,,,,,,,,,,,left,1,1.25010859407,001,3.0.3,60.0594940593884,ninosDelConv2,2019_May_09_0811,101,
,,,5,0,35.0,150,,,,,0,19,19,56,,,,,,,,,,,,,,,,,,left,0,2.09989384748,001,3.0.3,60.0594940593884,ninosDelConv2,2019_May_09_0811,101,
,,,5,0,104.0,10,,,,,0,20,20,38,,,,,,,,,,,,,,,,,,left,1,1.69957821723,001,3.0.3,60.0594940593884,ninosDelConv2,2019_May_09_0811,101,
,,,5,0,15.0,11,,,,,0,21,21,35,,,,,,,,,,,,,,,,,,left,1,2.5328489216,001,3.0.3,60.0594940593884,ninosDelConv2,2019_May_09_0811,101,
,,,5,0,104.0,5,,,,,0,22,22,33,,,,,,,,,,,,,,,,,,right,1,1.46700303024,001,3.0.3,60.0594940593884,ninosDelConv2,2019_May_09_0811,101,
,,,25,0,75.0,151,,,,,0,23,23,87,,,,,,,,,,,,,,,,,,left,0,1.56692823535,001,3.0.3,60.0594940593884,ninosDelConv2,2019_May_09_0811,101,
,,,5,0,106.0,152,,,,,0,24,24,58,,,,,,,,,,,,,,,,,,right,0,1.76597671863,001,3.0.3,60.0594940593884,ninosDelConv2,2019_May_09_0811,101,
,,,5,0,36.0,9,,,,,0,25,25,36,,,,,,,,,,,,,,,,,,left,1,1.78497209959,001,3.0.3,60.0594940593884,ninosDelConv2,2019_May_09_0811,101,
,,,25,0,35.0,11,,,,,0,26,26,65,,,,,,,,,,,,,,,,,,left,1,2.65014920477,001,3.0.3,60.0594940593884,ninosDelConv2,2019_May_09_0811,101,
,,,25,0,75.0,10,,,,,0,27,27,67,,,,,,,,,,,,,,,,,,left,1,1.04998419294,001,3.0.3,60.0594940593884,ninosDelConv2,2019_May_09_0811,101,
,,,25,0,150.0,29,,,,,0,28,28,74,,,,,,,,,,,,,,,,,,right,1,2.30003572674,001,3.0.3,60.0594940593884,ninosDelConv2,2019_May_09_0811,101,
,,,25,0,125.0,4,,,,,0,29,29,63,,,,,,,,,,,,,,,,,,left,1,0.817804828286,001,3.0.3,60.0594940593884,ninosDelConv2,2019_May_09_0811,101,
,,,25,0,35.0,90,,,,,0,30,30,80,,,,,,,,,,,,,,,,,,left,0,1.51684225956,001,3.0.3,60.0594940593884,ninosDelConv2,2019_May_09_0811,101,
,,,25,0,150.0,89,,,,,0,31,31,84,,,,,,,,,,,,,,,,,,left,0,2.032179364,001,3.0.3,60.0594940593884,ninosDelConv2,2019_May_09_0811,101,
,,,5,0,56.0,29,,,,,0,32,32,42,,,,,,,,,,,,,,,,,,right,1,2.74970069109,001,3.0.3,60.0594940593884,ninosDelConv2,2019_May_09_0811,101,
,,,10,0,40.0,91,,,,,0,33,33,21,,,,,,,,,,,,,,,,,,left,0,4.5328489216,001,3.0.3,60.0594940593884,ninosDelConv2,2019_May_09_0811,101,
,,,10,0,110.0,90,,,,,0,34,34,23,,,,,,,,,,,,,,,,,,left,1,1.33347041486,001,3.0.3,60.0594940593884,ninosDelConv2,2019_May_09_0811,101,
,,,25,0,35.0,5,,,,,0,35,35,60,,,,,,,,,,,,,,,,,,left,1,1.54973924533,001,3.0.3,60.0594940593884,ninosDelConv2,2019_May_09_0811,101,
,,,5,0,104.0,90,,,,,0,36,36,53,,,,,,,,,,,,,,,,,,left,0,3.54941590456,001,3.0.3,60.0594940593884,ninosDelConv2,2019_May_09_0811,101,
,,,10,0,61.0,89,,,,,0,37,37,22,,,,,,,,,,,,,,,,,,left,1,3.13293990912,001,3.0.3,60.0594940593884,ninosDelConv2,2019_May_09_0811,101,
,,,10,0,39.0,59,,,,,0,38,38,16,,,,,,,,,,,,,,,,,,left,1,2.9331779168,001,3.0.3,60.0594940593884,ninosDelConv2,2019_May_09_0811,101,
,,,10,0,60.0,60,,,,,0,39,39,17,,,,,,,,,,,,,,,,,,right,1,1.54997982364,001,3.0.3,60.0594940593884,ninosDelConv2,2019_May_09_0811,101,
,,,10,0,39.0,150,,,,,0,40,40,26,,,,,,,,,,,,,,,,,,left,0,1.78393319342,001,3.0.3,60.0594940593884,ninosDelConv2,2019_May_09_0811,101,
,,,25,0,75.0,5,,,,,0,41,41,62,,,,,,,,,,,,,,,,,,right,1,1.28331761202,001,3.0.3,60.0594940593884,ninosDelConv2,2019_May_09_0811,101,
,,,10,0,39.0,29,,,,,0,42,42,11,,,,,,,,,,,,,,,,,,left,1,1.28324101772,001,3.0.3,60.0594940593884,ninosDelConv2,2019_May_09_0811,101,
,,,5,0,16.0,4,,,,,0,43,43,30,,,,,,,,,,,,,,,,,,right,1,2.35069127614,001,3.0.3,60.0594940593884,ninosDelConv2,2019_May_09_0811,101,
,,,25,0,35.0,60,,,,,0,44,44,75,,,,,,,,,,,,,,,,,,right,0,1.68414575513,001,3.0.3,60.0594940593884,ninosDelConv2,2019_May_09_0811,101,
,,,25,0,55.0,30,,,,,0,45,45,71,,,,,,,,,,,,,,,,,,left,0,3.31658214703,001,3.0.3,60.0594940593884,ninosDelConv2,2019_May_09_0811,101,
,,,5,0,56.0,89,,,,,0,46,46,52,,,,,,,,,,,,,,,,,,left,1,1.73280471284,001,3.0.3,60.0594940593884,ninosDelConv2,2019_May_09_0811,101,
,,,5,0,36.0,61,,,,,0,47,47,46,,,,,,,,,,,,,,,,,,left,0,1.55000912445,001,3.0.3,60.0594940593884,ninosDelConv2,2019_May_09_0811,101,
,,,5,0,14.0,149,,,,,0,48,48,55,,,,,,,,,,,,,,,,,,left,0,1.96857835352,001,3.0.3,60.0594940593884,ninosDelConv2,2019_May_09_0811,101,
,,,25,0,150.0,61,,,,,0,49,49,79,,,,,,,,,,,,,,,,,,right,1,3.93272863235,001,3.0.3,60.0594940593884,ninosDelConv2,2019_May_09_0811,101,
,,,10,0,150.0,5,,,,,0,50,50,4,,,,,,,,,,,,,,,,,,left,1,1.31690805824,001,3.0.3,60.0594940593884,ninosDelConv2,2019_May_09_0811,101,
,,,10,0,149.0,89,,,,,0,51,51,24,,,,,,,,,,,,,,,,,,left,1,2.54962512525,001,3.0.3,60.0594940593884,ninosDelConv2,2019_May_09_0811,101,
,,,5,0,15.0,91,,,,,0,52,52,50,,,,,,,,,,,,,,,,,,right,1,0.783438158222,001,3.0.3,60.0594940593884,ninosDelConv2,2019_May_09_0811,101,
,,,10,0,151.0,151,,,,,0,53,53,29,,,,,,,,,,,,,,,,,,left,1,1.1500127227,001,3.0.3,60.0594940593884,ninosDelConv2,2019_May_09_0811,101,
,,,25,0,125.0,149,,,,,0,54,54,88,,,,,,,,,,,,,,,,,,left,0,3.08492814796,001,3.0.3,60.0594940593884,ninosDelConv2,2019_May_09_0811,101,
,,,25,0,55.0,6,,,,,0,55,55,61,,,,,,,,,,,,,,,,,,right,1,1.650355855,001,3.0.3,60.0594940593884,ninosDelConv2,2019_May_09_0811,101,
,,,5,0,149.0,59,,,,,0,56,56,49,,,,,,,,,,,,,,,,,,right,1,6.44748434052,001,3.0.3,60.0594940593884,ninosDelConv2,2019_May_09_0811,101,
,,,10,0,111.0,30,,,,,0,57,57,13,,,,,,,,,,,,,,,,,,right,1,1.60119312303,001,3.0.3,60.0594940593884,ninosDelConv2,2019_May_09_0811,101,
,,,10,0,110.0,60,,,,,0,58,58,18,,,,,,,,,,,,,,,,,,right,1,4.30011334922,001,3.0.3,60.0594940593884,ninosDelConv2,2019_May_09_0811,101,
,,,25,0,125.0,59,,,,,0,59,59,78,,,,,,,,,,,,,,,,,,left,1,8.48207822395,001,3.0.3,60.0594940593884,ninosDelConv2,2019_May_09_0811,101,
,,,5,0,54.0,5,,,,,0,60,60,32,,,,,,,,,,,,,,,,,,left,1,2.13280625502,001,3.0.3,60.0594940593884,ninosDelConv2,2019_May_09_0811,101,
,,,5,0,151.0,150,,,,,0,61,61,59,,,,,,,,,,,,,,,,,,right,1,1.51688749669,001,3.0.3,60.0594940593884,ninosDelConv2,2019_May_09_0811,101,
,,,10,0,60.0,29,,,,,0,62,62,12,,,,,,,,,,,,,,,,,,left,1,1.31665103091,001,3.0.3,60.0594940593884,ninosDelConv2,2019_May_09_0811,101,
,,,25,0,125.0,9,,,,,0,63,63,68,,,,,,,,,,,,,,,,,,right,1,2.31654667761,001,3.0.3,60.0594940593884,ninosDelConv2,2019_May_09_0811,101,
,,,10,0,39.0,6,,,,,0,64,64,1,,,,,,,,,,,,,,,,,,right,1,2.06672492623,001,3.0.3,60.0594940593884,ninosDelConv2,2019_May_09_0811,101,
,,,10,0,111.0,10,,,,,0,65,65,8,,,,,,,,,,,,,,,,,,right,1,0.866532155313,001,3.0.3,60.0594940593884,ninosDelConv2,2019_May_09_0811,101,
,,,5,0,55.0,151,,,,,0,66,66,57,,,,,,,,,,,,,,,,,,left,0,1.58340525813,001,3.0.3,60.0594940593884,ninosDelConv2,2019_May_09_0811,101,
,,,25,0,55.0,90,,,,,0,67,67,81,,,,,,,,,,,,,,,,,,right,0,2.59991261084,001,3.0.3,60.0594940593884,ninosDelConv2,2019_May_09_0811,101,
,,,5,0,149.0,10,,,,,0,68,68,39,,,,,,,,,,,,,,,,,,right,1,1.94988420885,001,3.0.3,60.0594940593884,ninosDelConv2,2019_May_09_0811,101,
,,,5,0,56.0,60,,,,,0,69,69,47,,,,,,,,,,,,,,,,,,left,1,1.53324320214,001,3.0.3,60.0594940593884,ninosDelConv2,2019_May_09_0811,101,
,,,10,0,21.0,31,,,,,0,70,70,10,,,,,,,,,,,,,,,,,,right,0,7.01543451799,001,3.0.3,60.0594940593884,ninosDelConv2,2019_May_09_0811,101,
,,,10,0,10.01,150,,,,,0,71,71,25,,,,,,,,,,,,,,,,,,right,0,1.13368271943,001,3.0.3,60.0594940593884,ninosDelConv2,2019_May_09_0811,101,
,,,5,0,14.0,31,,,,,0,72,72,40,,,,,,,,,,,,,,,,,,left,0,1.00044208765,001,3.0.3,60.0594940593884,ninosDelConv2,2019_May_09_0811,101,
,,,10,0,61.0,4,,,,,0,73,73,2,,,,,,,,,,,,,,,,,,right,1,1.65058923606,001,3.0.3,60.0594940593884,ninosDelConv2,2019_May_09_0811,101,
,,,25,0,150.0,150,,,,,0,74,74,89,,,,,,,,,,,,,,,,,,right,0,1.78318010177,001,3.0.3,60.0594940593884,ninosDelConv2,2019_May_09_0811,101,
,,,10,0,109.0,149,,,,,0,75,75,28,,,,,,,,,,,,,,,,,,right,0,1.75130043225,001,3.0.3,60.0594940593884,ninosDelConv2,2019_May_09_0811,101,
,,,10,0,59.0,9,,,,,0,76,76,7,,,,,,,,,,,,,,,,,,right,1,1.2659893129,001,3.0.3,60.0594940593884,ninosDelConv2,2019_May_09_0811,101,
,,,10,0,19.0,11,,,,,0,77,77,5,,,,,,,,,,,,,,,,,,left,1,2.13351873634,001,3.0.3,60.0594940593884,ninosDelConv2,2019_May_09_0811,101,
,,,25,0,125.0,31,,,,,0,78,78,73,,,,,,,,,,,,,,,,,,right,1,1.55052318005,001,3.0.3,60.0594940593884,ninosDelConv2,2019_May_09_0811,101,
,,,10,0,20.0,5,,,,,0,79,79,0,,,,,,,,,,,,,,,,,,right,1,0.949411278125,001,3.0.3,60.0594940593884,ninosDelConv2,2019_May_09_0811,101,
,,,25,0,55.0,151,,,,,0,80,80,86,,,,,,,,,,,,,,,,,,right,0,1.16625842126,001,3.0.3,60.0594940593884,ninosDelConv2,2019_May_09_0811,101,
,,,25,0,150.0,4,,,,,0,81,81,64,,,,,,,,,,,,,,,,,,right,1,1.50021770224,001,3.0.3,60.0594940593884,ninosDelConv2,2019_May_09_0811,101,
,,,5,0,35.0,89,,,,,0,82,82,51,,,,,,,,,,,,,,,,,,right,0,1.18305158801,001,3.0.3,60.0594940593884,ninosDelConv2,2019_May_09_0811,101,
,,,10,0,150.0,30,,,,,0,83,83,14,,,,,,,,,,,,,,,,,,right,1,1.94995257864,001,3.0.3,60.0594940593884,ninosDelConv2,2019_May_09_0811,101,
,,,5,0,35.0,31,,,,,0,84,84,41,,,,,,,,,,,,,,,,,,right,1,1.33310235105,001,3.0.3,60.0594940593884,ninosDelConv2,2019_May_09_0811,101,
,,,25,0,125.0,89,,,,,0,85,85,83,,,,,,,,,,,,,,,,,,right,0,4.0159393209,001,3.0.3,60.0594940593884,ninosDelConv2,2019_May_09_0811,101,
,,,5,0,150.0,30,,,,,0,86,86,44,,,,,,,,,,,,,,,,,,left,1,1.36649797065,001,3.0.3,60.0594940593884,ninosDelConv2,2019_May_09_0811,101,
,,,5,0,35.0,6,,,,,0,87,87,31,,,,,,,,,,,,,,,,,,right,1,1.70020228112,001,3.0.3,60.0594940593884,ninosDelConv2,2019_May_09_0811,101,
,,,25,0,75.0,59,,,,,0,88,88,77,,,,,,,,,,,,,,,,,,left,1,2.33461264614,001,3.0.3,60.0594940593884,ninosDelConv2,2019_May_09_0811,101,
,,,25,0,150.0,9,,,,,0,89,89,69,,,,,,,,,,,,,,,,,,right,1,4.34871216258,001,3.0.3,60.0594940593884,ninosDelConv2,2019_May_09_0811,101,
