ssAmount,llAmount,llDelay,ss_am,ss_del,ll_am,ll_del,Practice.thisRepN,Practice.thisTrialN,Practice.thisN,Practice.thisIndex,trials.thisRepN,trials.thisTrialN,trials.thisN,trials.thisIndex,key1.keys,key1.rt,key2.keys,key2.rt,key2_2.keys,key2_2.rt,key2_3.keys,key2_3.rt,key3.keys,key3.rt,key4.keys,key4.rt,respP.keys,respP.corr,respP.rt,key5.keys,key5.rt,respT.keys,respT.corr,respT.rt,key_resp_4.keys,key_resp_4.rt,session,psychopyVersion,frameRate,expName,date,participant,
,,,,,,,,,,,,,,,space,4.43343667574,,,,,,,,,,,,,,,,,,,,,001,3.0.3,59.997563473038944,ninosDelConv2,2019_May_09_0806,106,
,,,,,,,,,,,,,,,,,space,5.21638831386,,,,,,,,,,,,,,,,,,,001,3.0.3,59.997563473038944,ninosDelConv2,2019_May_09_0806,106,
,,,,,,,,,,,,,,,,,,,space,2.96669481981,,,,,,,,,,,,,,,,,001,3.0.3,59.997563473038944,ninosDelConv2,2019_May_09_0806,106,
,,,,,,,,,,,,,,,,,,,,,space,5.08323030792,,,,,,,,,,,,,,,001,3.0.3,59.997563473038944,ninosDelConv2,2019_May_09_0806,106,
,,,,,,,,,,,,,,,,,,,,,,,right,4.21590921358,,,,,,,,,,,,,001,3.0.3,59.997563473038944,ninosDelConv2,2019_May_09_0806,106,
,,,,,,,,,,,,,,,,,,,,,,,,,space,3.26697914423,,,,,,,,,,,001,3.0.3,59.997563473038944,ninosDelConv2,2019_May_09_0806,106,
10,19,89,,,,,0,0,0,2,,,,,,,,,,,,,,,,,right,0,3.26556600403,,,,,,,,001,3.0.3,59.997563473038944,ninosDelConv2,2019_May_09_0806,106,
25,35,150,,,,,0,1,1,1,,,,,,,,,,,,,,,,,left,0,3.4835288717,,,,,,,,001,3.0.3,59.997563473038944,ninosDelConv2,2019_May_09_0806,106,
10,109,9,,,,,0,2,2,0,,,,,,,,,,,,,,,,,left,1,3.24977111652,,,,,,,,001,3.0.3,59.997563473038944,ninosDelConv2,2019_May_09_0806,106,
,,,,,,,,,,,,,,,,,,,,,,,,,,,,,,g,105.728859058,,,,,,001,3.0.3,59.997563473038944,ninosDelConv2,2019_May_09_0806,106,
,,,10,0,20.0,59,,,,,0,0,0,15,,,,,,,,,,,,,,,,,,left,0,2.64937107807,,,001,3.0.3,59.997563473038944,ninosDelConv2,2019_May_09_0806,106,
,,,5,0,150.0,30,,,,,0,1,1,44,,,,,,,,,,,,,,,,,,left,1,1.81667217563,,,001,3.0.3,59.997563473038944,ninosDelConv2,2019_May_09_0806,106,
,,,5,0,36.0,9,,,,,0,2,2,36,,,,,,,,,,,,,,,,,,left,1,3.26862001128,,,001,3.0.3,59.997563473038944,ninosDelConv2,2019_May_09_0806,106,
,,,5,0,15.0,61,,,,,0,3,3,45,,,,,,,,,,,,,,,,,,right,0,5.01559697591,,,001,3.0.3,59.997563473038944,ninosDelConv2,2019_May_09_0806,106,
,,,10,0,149.0,61,,,,,0,4,4,19,,,,,,,,,,,,,,,,,,left,1,4.88294634334,,,001,3.0.3,59.997563473038944,ninosDelConv2,2019_May_09_0806,106,
,,,25,0,125.0,4,,,,,0,5,5,63,,,,,,,,,,,,,,,,,,left,1,1.3168066013,,,001,3.0.3,59.997563473038944,ninosDelConv2,2019_May_09_0806,106,
,,,25,0,35.0,60,,,,,0,6,6,75,,,,,,,,,,,,,,,,,,left,0,1.61721943975,,,001,3.0.3,59.997563473038944,ninosDelConv2,2019_May_09_0806,106,
,,,5,0,56.0,89,,,,,0,7,7,52,,,,,,,,,,,,,,,,,,right,0,1.54996548113,,,001,3.0.3,59.997563473038944,ninosDelConv2,2019_May_09_0806,106,
,,,25,0,55.0,151,,,,,0,8,8,86,,,,,,,,,,,,,,,,,,left,0,1.63331453602,,,001,3.0.3,59.997563473038944,ninosDelConv2,2019_May_09_0806,106,
,,,5,0,35.0,89,,,,,0,9,9,51,,,,,,,,,,,,,,,,,,right,0,0.916852969162,,,001,3.0.3,59.997563473038944,ninosDelConv2,2019_May_09_0806,106,
,,,5,0,15.0,11,,,,,0,10,10,35,,,,,,,,,,,,,,,,,,right,1,1.5983751715,,,001,3.0.3,59.997563473038944,ninosDelConv2,2019_May_09_0806,106,
,,,25,0,75.0,5,,,,,0,11,11,62,,,,,,,,,,,,,,,,,,right,1,0.9499972498,,,001,3.0.3,59.997563473038944,ninosDelConv2,2019_May_09_0806,106,
,,,10,0,151.0,151,,,,,0,12,12,29,,,,,,,,,,,,,,,,,,right,0,5.08287612328,,,001,3.0.3,59.997563473038944,ninosDelConv2,2019_May_09_0806,106,
,,,10,0,59.0,9,,,,,0,13,13,7,,,,,,,,,,,,,,,,,,left,1,1.3165444327,,,001,3.0.3,59.997563473038944,ninosDelConv2,2019_May_09_0806,106,
,,,5,0,149.0,59,,,,,0,14,14,49,,,,,,,,,,,,,,,,,,left,0,1.38308488146,,,001,3.0.3,59.997563473038944,ninosDelConv2,2019_May_09_0806,106,
,,,25,0,125.0,59,,,,,0,15,15,78,,,,,,,,,,,,,,,,,,left,0,0.900135865025,,,001,3.0.3,59.997563473038944,ninosDelConv2,2019_May_09_0806,106,
,,,25,0,35.0,5,,,,,0,16,16,60,,,,,,,,,,,,,,,,,,right,1,2.18331240268,,,001,3.0.3,59.997563473038944,ninosDelConv2,2019_May_09_0806,106,
,,,10,0,40.0,91,,,,,0,17,17,21,,,,,,,,,,,,,,,,,,left,0,2.70063120948,,,001,3.0.3,59.997563473038944,ninosDelConv2,2019_May_09_0806,106,
,,,10,0,110.0,90,,,,,0,18,18,23,,,,,,,,,,,,,,,,,,left,0,3.73293449435,,,001,3.0.3,59.997563473038944,ninosDelConv2,2019_May_09_0806,106,
,,,25,0,125.0,9,,,,,0,19,19,68,,,,,,,,,,,,,,,,,,right,1,0.816929203681,,,001,3.0.3,59.997563473038944,ninosDelConv2,2019_May_09_0806,106,
,,,5,0,104.0,90,,,,,0,20,20,53,,,,,,,,,,,,,,,,,,left,0,1.18449678792,,,001,3.0.3,59.997563473038944,ninosDelConv2,2019_May_09_0806,106,
,,,25,0,125.0,31,,,,,0,21,21,73,,,,,,,,,,,,,,,,,,right,0,2.05143748075,,,001,3.0.3,59.997563473038944,ninosDelConv2,2019_May_09_0806,106,
,,,10,0,111.0,30,,,,,0,22,22,13,,,,,,,,,,,,,,,,,,right,1,4.34939210297,,,001,3.0.3,59.997563473038944,ninosDelConv2,2019_May_09_0806,106,
,,,25,0,150.0,150,,,,,0,23,23,89,,,,,,,,,,,,,,,,,,left,0,3.26661159412,,,001,3.0.3,59.997563473038944,ninosDelConv2,2019_May_09_0806,106,
,,,25,0,35.0,90,,,,,0,24,24,80,,,,,,,,,,,,,,,,,,right,0,0.683857045113,,,001,3.0.3,59.997563473038944,ninosDelConv2,2019_May_09_0806,106,
,,,5,0,14.0,31,,,,,0,25,25,40,,,,,,,,,,,,,,,,,,right,0,3.06700566952,,,001,3.0.3,59.997563473038944,ninosDelConv2,2019_May_09_0806,106,
,,,25,0,75.0,31,,,,,0,26,26,72,,,,,,,,,,,,,,,,,,left,0,2.23373924916,,,001,3.0.3,59.997563473038944,ninosDelConv2,2019_May_09_0806,106,
,,,25,0,150.0,29,,,,,0,27,27,74,,,,,,,,,,,,,,,,,,right,0,2.48319422119,,,001,3.0.3,59.997563473038944,ninosDelConv2,2019_May_09_0806,106,
,,,5,0,54.0,5,,,,,0,28,28,32,,,,,,,,,,,,,,,,,,right,1,1.80009026825,,,001,3.0.3,59.997563473038944,ninosDelConv2,2019_May_09_0806,106,
,,,5,0,106.0,29,,,,,0,29,29,43,,,,,,,,,,,,,,,,,,right,0,2.91526864828,,,001,3.0.3,59.997563473038944,ninosDelConv2,2019_May_09_0806,106,
,,,5,0,14.0,149,,,,,0,30,30,55,,,,,,,,,,,,,,,,,,right,0,1.04976525629,,,001,3.0.3,59.997563473038944,ninosDelConv2,2019_May_09_0806,106,
,,,5,0,35.0,31,,,,,0,31,31,41,,,,,,,,,,,,,,,,,,right,0,0.933480627539,,,001,3.0.3,59.997563473038944,ninosDelConv2,2019_May_09_0806,106,
,,,10,0,109.0,149,,,,,0,32,32,28,,,,,,,,,,,,,,,,,,right,0,1.64999514217,,,001,3.0.3,59.997563473038944,ninosDelConv2,2019_May_09_0806,106,
,,,5,0,36.0,61,,,,,0,33,33,46,,,,,,,,,,,,,,,,,,left,0,0.900205776654,,,001,3.0.3,59.997563473038944,ninosDelConv2,2019_May_09_0806,106,
,,,10,0,19.0,11,,,,,0,34,34,5,,,,,,,,,,,,,,,,,,left,0,1.23325963482,,,001,3.0.3,59.997563473038944,ninosDelConv2,2019_May_09_0806,106,
,,,10,0,150.0,5,,,,,0,35,35,4,,,,,,,,,,,,,,,,,,left,0,8.44817877637,,,001,3.0.3,59.997563473038944,ninosDelConv2,2019_May_09_0806,106,
,,,10,0,39.0,6,,,,,0,36,36,1,,,,,,,,,,,,,,,,,,right,1,1.38357169258,,,001,3.0.3,59.997563473038944,ninosDelConv2,2019_May_09_0806,106,
,,,10,0,40.0,10,,,,,0,37,37,6,,,,,,,,,,,,,,,,,,right,0,1.13356873675,,,001,3.0.3,59.997563473038944,ninosDelConv2,2019_May_09_0806,106,
,,,10,0,109.0,5,,,,,0,38,38,3,,,,,,,,,,,,,,,,,,right,0,3.14960368846,,,001,3.0.3,59.997563473038944,ninosDelConv2,2019_May_09_0806,106,
,,,25,0,35.0,11,,,,,0,39,39,65,,,,,,,,,,,,,,,,,,right,0,1.81663053709,,,001,3.0.3,59.997563473038944,ninosDelConv2,2019_May_09_0806,106,
,,,10,0,111.0,10,,,,,0,40,40,8,,,,,,,,,,,,,,,,,,left,0,1.23338506451,,,001,3.0.3,59.997563473038944,ninosDelConv2,2019_May_09_0806,106,
,,,10,0,39.0,150,,,,,0,41,41,26,,,,,,,,,,,,,,,,,,left,0,1.06678256918,,,001,3.0.3,59.997563473038944,ninosDelConv2,2019_May_09_0806,106,
,,,25,0,75.0,151,,,,,0,42,42,87,,,,,,,,,,,,,,,,,,right,0,0.666900904893,,,001,3.0.3,59.997563473038944,ninosDelConv2,2019_May_09_0806,106,
,,,25,0,125.0,149,,,,,0,43,43,88,,,,,,,,,,,,,,,,,,right,0,0.950560141222,,,001,3.0.3,59.997563473038944,ninosDelConv2,2019_May_09_0806,106,
,,,10,0,61.0,150,,,,,0,44,44,27,,,,,,,,,,,,,,,,,,right,0,1.0171530237,,,001,3.0.3,59.997563473038944,ninosDelConv2,2019_May_09_0806,106,
,,,10,0,21.0,31,,,,,0,45,45,10,,,,,,,,,,,,,,,,,,left,0,1.46660665919,,,001,3.0.3,59.997563473038944,ninosDelConv2,2019_May_09_0806,106,
,,,25,0,150.0,4,,,,,0,46,46,64,,,,,,,,,,,,,,,,,,left,1,1.83341498258,,,001,3.0.3,59.997563473038944,ninosDelConv2,2019_May_09_0806,106,
,,,25,0,75.0,10,,,,,0,47,47,67,,,,,,,,,,,,,,,,,,left,0,0.983738349561,,,001,3.0.3,59.997563473038944,ninosDelConv2,2019_May_09_0806,106,
,,,10,0,60.0,29,,,,,0,48,48,12,,,,,,,,,,,,,,,,,,right,0,1.33337360106,,,001,3.0.3,59.997563473038944,ninosDelConv2,2019_May_09_0806,106,
,,,10,0,150.0,30,,,,,0,49,49,14,,,,,,,,,,,,,,,,,,left,0,0.633299628389,,,001,3.0.3,59.997563473038944,ninosDelConv2,2019_May_09_0806,106,
,,,5,0,149.0,10,,,,,0,50,50,39,,,,,,,,,,,,,,,,,,left,1,1.09834715545,,,001,3.0.3,59.997563473038944,ninosDelConv2,2019_May_09_0806,106,
,,,5,0,105.0,60,,,,,0,51,51,48,,,,,,,,,,,,,,,,,,left,0,0.883766776863,,,001,3.0.3,59.997563473038944,ninosDelConv2,2019_May_09_0806,106,
,,,10,0,10.01,150,,,,,0,52,52,25,,,,,,,,,,,,,,,,,,right,0,0.716825518567,,,001,3.0.3,59.997563473038944,ninosDelConv2,2019_May_09_0806,106,
,,,25,0,35.0,150,,,,,0,53,53,85,,,,,,,,,,,,,,,,,,right,0,1.21670600053,,,001,3.0.3,59.997563473038944,ninosDelConv2,2019_May_09_0806,106,
,,,5,0,151.0,150,,,,,0,54,54,59,,,,,,,,,,,,,,,,,,right,0,0.550223023236,,,001,3.0.3,59.997563473038944,ninosDelConv2,2019_May_09_0806,106,
,,,5,0,106.0,152,,,,,0,55,55,58,,,,,,,,,,,,,,,,,,left,0,0.25053346171,,,001,3.0.3,59.997563473038944,ninosDelConv2,2019_May_09_0806,106,
,,,25,0,75.0,90,,,,,0,56,56,82,,,,,,,,,,,,,,,,,,right,0,0.46689812899,,,001,3.0.3,59.997563473038944,ninosDelConv2,2019_May_09_0806,106,
,,,25,0,55.0,11,,,,,0,57,57,66,,,,,,,,,,,,,,,,,,right,0,1.48423107233,,,001,3.0.3,59.997563473038944,ninosDelConv2,2019_May_09_0806,106,
,,,25,0,75.0,59,,,,,0,58,58,77,,,,,,,,,,,,,,,,,,left,0,0.566700063177,,,001,3.0.3,59.997563473038944,ninosDelConv2,2019_May_09_0806,106,
,,,10,0,39.0,59,,,,,0,59,59,16,,,,,,,,,,,,,,,,,,right,0,0.499320160817,,,001,3.0.3,59.997563473038944,ninosDelConv2,2019_May_09_0806,106,
,,,10,0,61.0,89,,,,,0,60,60,22,,,,,,,,,,,,,,,,,,right,0,0.266093425582,,,001,3.0.3,59.997563473038944,ninosDelConv2,2019_May_09_0806,106,
,,,5,0,35.0,150,,,,,0,61,61,56,,,,,,,,,,,,,,,,,,left,0,1.03364445722,,,001,3.0.3,59.997563473038944,ninosDelConv2,2019_May_09_0806,106,
,,,25,0,150.0,61,,,,,0,62,62,79,,,,,,,,,,,,,,,,,,right,0,0.800110316437,,,001,3.0.3,59.997563473038944,ninosDelConv2,2019_May_09_0806,106,
,,,25,0,125.0,89,,,,,0,63,63,83,,,,,,,,,,,,,,,,,,left,0,0.399641086036,,,001,3.0.3,59.997563473038944,ninosDelConv2,2019_May_09_0806,106,
,,,25,0,150.0,89,,,,,0,64,64,84,,,,,,,,,,,,,,,,,,right,0,3.88267492172,,,001,3.0.3,59.997563473038944,ninosDelConv2,2019_May_09_0806,106,
,,,25,0,55.0,30,,,,,0,65,65,71,,,,,,,,,,,,,,,,,,left,0,0.851201837442,,,001,3.0.3,59.997563473038944,ninosDelConv2,2019_May_09_0806,106,
,,,25,0,55.0,6,,,,,0,66,66,61,,,,,,,,,,,,,,,,,,right,0,0.649661519766,,,001,3.0.3,59.997563473038944,ninosDelConv2,2019_May_09_0806,106,
,,,5,0,104.0,5,,,,,0,67,67,33,,,,,,,,,,,,,,,,,,left,0,0.700327916381,,,001,3.0.3,59.997563473038944,ninosDelConv2,2019_May_09_0806,106,
,,,25,0,55.0,90,,,,,0,68,68,81,,,,,,,,,,,,,,,,,,left,0,0.767465184266,,,001,3.0.3,59.997563473038944,ninosDelConv2,2019_May_09_0806,106,
,,,5,0,56.0,60,,,,,0,69,69,47,,,,,,,,,,,,,,,,,,right,0,1.16628840706,,,001,3.0.3,59.997563473038944,ninosDelConv2,2019_May_09_0806,106,
,,,5,0,35.0,6,,,,,0,70,70,31,,,,,,,,,,,,,,,,,,left,0,0.534105308503,,,001,3.0.3,59.997563473038944,ninosDelConv2,2019_May_09_0806,106,
,,,10,0,39.0,29,,,,,0,71,71,11,,,,,,,,,,,,,,,,,,right,0,1.13333021473,,,001,3.0.3,59.997563473038944,ninosDelConv2,2019_May_09_0806,106,
,,,10,0,60.0,60,,,,,0,72,72,17,,,,,,,,,,,,,,,,,,right,0,1.51630354601,,,001,3.0.3,59.997563473038944,ninosDelConv2,2019_May_09_0806,106,
,,,10,0,20.0,5,,,,,0,73,73,0,,,,,,,,,,,,,,,,,,right,0,2.44920843073,,,001,3.0.3,59.997563473038944,ninosDelConv2,2019_May_09_0806,106,
,,,5,0,151.0,4,,,,,0,74,74,34,,,,,,,,,,,,,,,,,,left,1,2.14963967238,,,001,3.0.3,59.997563473038944,ninosDelConv2,2019_May_09_0806,106,
,,,10,0,20.0,90,,,,,0,75,75,20,,,,,,,,,,,,,,,,,,left,0,1.33377405076,,,001,3.0.3,59.997563473038944,ninosDelConv2,2019_May_09_0806,106,
,,,5,0,56.0,29,,,,,0,76,76,42,,,,,,,,,,,,,,,,,,right,0,1.63320298584,,,001,3.0.3,59.997563473038944,ninosDelConv2,2019_May_09_0806,106,
,,,10,0,61.0,4,,,,,0,77,77,2,,,,,,,,,,,,,,,,,,left,1,1.30013422005,,,001,3.0.3,59.997563473038944,ninosDelConv2,2019_May_09_0806,106,
,,,5,0,16.0,4,,,,,0,78,78,30,,,,,,,,,,,,,,,,,,right,0,4.18287596906,,,001,3.0.3,59.997563473038944,ninosDelConv2,2019_May_09_0806,106,
,,,25,0,35.0,30,,,,,0,79,79,70,,,,,,,,,,,,,,,,,,right,0,1.03340387896,,,001,3.0.3,59.997563473038944,ninosDelConv2,2019_May_09_0806,106,
,,,25,0,150.0,9,,,,,0,80,80,69,,,,,,,,,,,,,,,,,,left,0,0.716837341857,,,001,3.0.3,59.997563473038944,ninosDelConv2,2019_May_09_0806,106,
,,,5,0,56.0,9,,,,,0,81,81,37,,,,,,,,,,,,,,,,,,left,0,1.15001750361,,,001,3.0.3,59.997563473038944,ninosDelConv2,2019_May_09_0806,106,
,,,10,0,149.0,89,,,,,0,82,82,24,,,,,,,,,,,,,,,,,,left,0,0.650563688208,,,001,3.0.3,59.997563473038944,ninosDelConv2,2019_May_09_0806,106,
,,,5,0,150.0,90,,,,,0,83,83,54,,,,,,,,,,,,,,,,,,left,0,0.799191184143,,,001,3.0.3,59.997563473038944,ninosDelConv2,2019_May_09_0806,106,
,,,10,0,151.0,11,,,,,0,84,84,9,,,,,,,,,,,,,,,,,,left,1,1.81670815956,,,001,3.0.3,59.997563473038944,ninosDelConv2,2019_May_09_0806,106,
,,,5,0,55.0,151,,,,,0,85,85,57,,,,,,,,,,,,,,,,,,right,0,6.58160974609,,,001,3.0.3,59.997563473038944,ninosDelConv2,2019_May_09_0806,106,
,,,25,0,55.0,60,,,,,0,86,86,76,,,,,,,,,,,,,,,,,,left,0,2.21641915723,,,001,3.0.3,59.997563473038944,ninosDelConv2,2019_May_09_0806,106,
,,,5,0,15.0,91,,,,,0,87,87,50,,,,,,,,,,,,,,,,,,right,0,2.96742375134,,,001,3.0.3,59.997563473038944,ninosDelConv2,2019_May_09_0806,106,
,,,5,0,104.0,10,,,,,0,88,88,38,,,,,,,,,,,,,,,,,,right,1,4.8156867301,,,001,3.0.3,59.997563473038944,ninosDelConv2,2019_May_09_0806,106,
,,,10,0,110.0,60,,,,,0,89,89,18,,,,,,,,,,,,,,,,,,left,0,0.850338223206,,,001,3.0.3,59.997563473038944,ninosDelConv2,2019_May_09_0806,106,
,,,,,,,,,,,,,,,,,,,,,,,,,,,,,,,,,,,right,3.38239090573,001,3.0.3,59.997563473038944,ninosDelConv2,2019_May_09_0806,106,
