ssAmount,llAmount,llDelay,ss_am,ss_del,ll_am,ll_del,Practice.thisRepN,Practice.thisTrialN,Practice.thisN,Practice.thisIndex,trials.thisRepN,trials.thisTrialN,trials.thisN,trials.thisIndex,intro1.started,intro1.stopped,key1.keys,key1.rt,key1.started,key1.stopped,intro2.started,intro2.stopped,key2.keys,key2.rt,key2.started,key2.stopped,intro2_2.started,intro2_2.stopped,key2_2.keys,key2_2.rt,key2_2.started,key2_2.stopped,Intro2_3.started,Intro2_3.stopped,key2_3.keys,key2_3.rt,key2_3.started,key2_3.stopped,key3.keys,key3.rt,key3.started,key3.stopped,intro3.started,intro3.stopped,ss_am.started,ss_am.stopped,ss_del.started,ss_del.stopped,ll_am.started,ll_am.stopped,ll_del.started,ll_del.stopped,Intro4.started,Intro4.stopped,key4.keys,key4.rt,key4.started,key4.stopped,pregunta.started,pregunta.stopped,ssAm_P.started,ssAm_P.stopped,ssDel_P.started,ssDel_P.stopped,llAm_P.started,llAm_P.stopped,llDel_P.started,llDel_P.stopped,respP.keys,respP.corr,respP.rt,respP.started,respP.stopped,feedbackP.started,feedbackP.stopped,comienzo.started,comienzo.stopped,key5.keys,key5.rt,key5.started,key5.stopped,preguntaT.started,preguntaT.stopped,ssAm_T.started,ssAm_T.stopped,ssDel_T.started,ssDel_T.stopped,llAm_T.started,llAm_T.stopped,llDel_T.started,llDel_T.stopped,respT.keys,respT.corr,respT.rt,respT.started,respT.stopped,textfbT.started,textfbT.stopped,Gracias.started,Gracias.stopped,key_resp_4.keys,key_resp_4.rt,key_resp_4.started,key_resp_4.stopped,session,participant,date,expName,psychopyVersion,frameRate,
,,,,,,,,,,,,,,,23.38588479999453,None,space,4.020986299961805,23.84655080002267,None,,,,,,,,,,,,,,,,,,,,,,,,,,,,,,,,,,,,,,,,,,,,,,,,,,,,,,,,,,,,,,,,,,,,,,,,,,,,,,,,,,,,,001,130,2019_Aug_24_0805,ninosDelConv2,3.1.5,60.2818538627399,
,,,,,,,,,,,,,,,,,,,,,27.89614110009279,None,space,22.325363100040704,28.41245050006546,None,,,,,,,,,,,,,,,,,,,,,,,,,,,,,,,,,,,,,,,,,,,,,,,,,,,,,,,,,,,,,,,,,,,,,,,,,,,,,,,001,130,2019_Aug_24_0805,ninosDelConv2,3.1.5,60.2818538627399,
,,,,,,,,,,,,,,,,,,,,,,,,,,,50.75904610008001,None,space,4.886081599979661,51.274741400033236,None,,,,,,,,,,,,,,,,,,,,,,,,,,,,,,,,,,,,,,,,,,,,,,,,,,,,,,,,,,,,,,,,,,,,,,,,,001,130,2019_Aug_24_0805,ninosDelConv2,3.1.5,60.2818538627399,
,,,,,,,,,,,,,,,,,,,,,,,,,,,,,,,,,56.19049549999181,None,space,2.020275199902244,56.70717130007688,None,,,,,,,,,,,,,,,,,,,,,,,,,,,,,,,,,,,,,,,,,,,,,,,,,,,,,,,,,,,,,,,,,,,001,130,2019_Aug_24_0805,ninosDelConv2,3.1.5,60.2818538627399,
,,,,,,,,,,,,,,,,,,,,,,,,,,,,,,,,,,,,,,,right,3.6203718000324443,59.273761600023136,None,,,,,,,,,,,,,,,,,,,,,,,,,,,,,,,,,,,,,,,,,,,,,,,,,,,,,,,,,,,,,,,001,130,2019_Aug_24_0805,ninosDelConv2,3.1.5,60.2818538627399,
,,,,,,,,,,,,,,,,,,,,,,,,,,,,,,,,,,,,,,,,,,,58.75824850006029,None,58.75824850006029,None,58.75824850006029,None,58.75824850006029,None,58.75824850006029,None,62.923761300044134,None,space,1.6344889999600127,63.43920780008193,None,,,,,,,,,,,,,,,,,,,,,,,,,,,,,,,,,,,,,,,,,,,,,,,001,130,2019_Aug_24_0805,ninosDelConv2,3.1.5,60.2818538627399,
10,19,89,,,,,0,0,0,2,,,,,,,,,,,,,,,,,,,,,,,,,,,,,,,,,,,,,,,,,,,,,,,,,65.37914780003484,None,65.37914780003484,None,65.37914780003484,None,65.37914780003484,None,65.37914780003484,None,right,0,4.170048699947074,65.87220640003216,None,70.07875009998679,None,,,,,,,,,,,,,,,,,,,,,,,,,,,,,,001,130,2019_Aug_24_0805,ninosDelConv2,3.1.5,60.2818538627399,
10,109,9,,,,,0,1,1,0,,,,,,,,,,,,,,,,,,,,,,,,,,,,,,,,,,,,,,,,,,,,,,,,,73.07064270006958,None,73.07064270006958,None,73.07064270006958,None,73.07064270006958,None,73.07064270006958,None,left,1,1.6876592000480741,73.58731810003519,None,75.30427010008134,None,,,,,,,,,,,,,,,,,,,,,,,,,,,,,,001,130,2019_Aug_24_0805,ninosDelConv2,3.1.5,60.2818538627399,
25,35,150,,,,,0,2,2,1,,,,,,,,,,,,,,,,,,,,,,,,,,,,,,,,,,,,,,,,,,,,,,,,,78.30974860000424,None,78.30974860000424,None,78.30974860000424,None,78.30974860000424,None,78.30974860000424,None,left,0,2.5966611000476405,78.82063040009234,None,81.43572020006832,None,,,,,,,,,,,,,,,,,,,,,,,,,,,,,,001,130,2019_Aug_24_0805,ninosDelConv2,3.1.5,60.2818538627399,
,,,,,,,,,,,,,,,,,,,,,,,,,,,,,,,,,,,,,,,,,,,,,,,,,,,,,,,,,,,,,,,,,,,,,,,,,,,,84.43509550008457,None,g,115.4727053999668,84.9516953000566,None,,,,,,,,,,,,,,,,,,,,,,,,001,130,2019_Aug_24_0805,ninosDelConv2,3.1.5,60.2818538627399,
,,,10,0,60.0,60,,,,,0,0,0,17,,,,,,,,,,,,,,,,,,,,,,,,,,,,,,,,,,,,,,,,,,,,,,,,,,,,,,,,,,,,,,,,,,,,200.4772158000851,None,200.4772158000851,None,200.4772158000851,None,200.4772158000851,None,200.4772158000851,None,left,1,11.057617399957962,200.9798468000954,None,212.06289840000682,None,,,,,,,001,130,2019_Aug_24_0805,ninosDelConv2,3.1.5,60.2818538627399,
,,,25,0,150.0,29,,,,,0,1,1,74,,,,,,,,,,,,,,,,,,,,,,,,,,,,,,,,,,,,,,,,,,,,,,,,,,,,,,,,,,,,,,,,,,,,215.06693410000298,None,215.06693410000298,None,215.06693410000298,None,215.06693410000298,None,215.06693410000298,None,left,1,3.463370700017549,215.57755769998766,None,219.05962070007809,None,,,,,,,001,130,2019_Aug_24_0805,ninosDelConv2,3.1.5,60.2818538627399,
,,,25,0,75.0,10,,,,,0,2,2,67,,,,,,,,,,,,,,,,,,,,,,,,,,,,,,,,,,,,,,,,,,,,,,,,,,,,,,,,,,,,,,,,,,,,222.06703430006746,None,222.06703430006746,None,222.06703430006746,None,222.06703430006746,None,222.06703430006746,None,left,1,1.323583499994129,222.57578970002942,None,223.92575430008583,None,,,,,,,001,130,2019_Aug_24_0805,ninosDelConv2,3.1.5,60.2818538627399,
,,,25,0,75.0,5,,,,,0,3,3,62,,,,,,,,,,,,,,,,,,,,,,,,,,,,,,,,,,,,,,,,,,,,,,,,,,,,,,,,,,,,,,,,,,,,226.9258840000257,None,226.9258840000257,None,226.9258840000257,None,226.9258840000257,None,226.9258840000257,None,left,1,1.2161556000355631,227.44126150000375,None,228.674805900082,None,,,,,,,001,130,2019_Aug_24_0805,ninosDelConv2,3.1.5,60.2818538627399,
,,,5,0,150.0,30,,,,,0,4,4,44,,,,,,,,,,,,,,,,,,,,,,,,,,,,,,,,,,,,,,,,,,,,,,,,,,,,,,,,,,,,,,,,,,,,231.67522299999837,None,231.67522299999837,None,231.67522299999837,None,231.67522299999837,None,231.67522299999837,None,right,1,3.043767699971795,232.1908751000883,None,235.25667810009327,None,,,,,,,001,130,2019_Aug_24_0805,ninosDelConv2,3.1.5,60.2818538627399,
,,,5,0,104.0,10,,,,,0,5,5,38,,,,,,,,,,,,,,,,,,,,,,,,,,,,,,,,,,,,,,,,,,,,,,,,,,,,,,,,,,,,,,,,,,,,238.2588782000821,None,238.2588782000821,None,238.2588782000821,None,238.2588782000821,None,238.2588782000821,None,right,1,1.5512213000329211,238.77260330005083,None,240.33945650001988,None,,,,,,,001,130,2019_Aug_24_0805,ninosDelConv2,3.1.5,60.2818538627399,
,,,10,0,110.0,90,,,,,0,6,6,23,,,,,,,,,,,,,,,,,,,,,,,,,,,,,,,,,,,,,,,,,,,,,,,,,,,,,,,,,,,,,,,,,,,,243.3408254000824,None,243.3408254000824,None,243.3408254000824,None,243.3408254000824,None,243.3408254000824,None,left,1,3.072643999941647,243.8555733000394,None,246.9543299000943,None,,,,,,,001,130,2019_Aug_24_0805,ninosDelConv2,3.1.5,60.2818538627399,
,,,10,0,151.0,151,,,,,0,7,7,29,,,,,,,,,,,,,,,,,,,,,,,,,,,,,,,,,,,,,,,,,,,,,,,,,,,,,,,,,,,,,,,,,,,,249.9704129000893,None,249.9704129000893,None,249.9704129000893,None,249.9704129000893,None,249.9704129000893,None,left,1,6.824152699904516,250.47040059999563,None,257.318715600064,None,,,,,,,001,130,2019_Aug_24_0805,ninosDelConv2,3.1.5,60.2818538627399,
,,,10,0,60.0,29,,,,,0,8,8,12,,,,,,,,,,,,,,,,,,,,,,,,,,,,,,,,,,,,,,,,,,,,,,,,,,,,,,,,,,,,,,,,,,,,260.31927900004666,None,260.31927900004666,None,260.31927900004666,None,260.31927900004666,None,260.31927900004666,None,left,1,4.886924299993552,260.83466080005746,None,265.7505133000668,None,,,,,,,001,130,2019_Aug_24_0805,ninosDelConv2,3.1.5,60.2818538627399,
,,,5,0,104.0,5,,,,,0,9,9,33,,,,,,,,,,,,,,,,,,,,,,,,,,,,,,,,,,,,,,,,,,,,,,,,,,,,,,,,,,,,,,,,,,,,268.7518584000645,None,268.7518584000645,None,268.7518584000645,None,268.7518584000645,None,268.7518584000645,None,left,1,1.2851259999442846,269.26748250005767,None,270.58405130007304,None,,,,,,,001,130,2019_Aug_24_0805,ninosDelConv2,3.1.5,60.2818538627399,
,,,5,0,15.0,61,,,,,0,10,10,45,,,,,,,,,,,,,,,,,,,,,,,,,,,,,,,,,,,,,,,,,,,,,,,,,,,,,,,,,,,,,,,,,,,,273.5824036000995,None,273.5824036000995,None,273.5824036000995,None,273.5824036000995,None,273.5824036000995,None,right,0,1.8468882000306621,274.0990299000405,None,275.96525730006397,None,,,,,,,001,130,2019_Aug_24_0805,ninosDelConv2,3.1.5,60.2818538627399,
,,,25,0,150.0,150,,,,,0,11,11,89,,,,,,,,,,,,,,,,,,,,,,,,,,,,,,,,,,,,,,,,,,,,,,,,,,,,,,,,,,,,,,,,,,,,278.9805381000042,None,278.9805381000042,None,278.9805381000042,None,278.9805381000042,None,278.9805381000042,None,right,0,2.18246589996852,279.48155810008757,None,281.6809320000466,None,,,,,,,001,130,2019_Aug_24_0805,ninosDelConv2,3.1.5,60.2818538627399,
,,,10,0,109.0,5,,,,,0,12,12,3,,,,,,,,,,,,,,,,,,,,,,,,,,,,,,,,,,,,,,,,,,,,,,,,,,,,,,,,,,,,,,,,,,,,284.6830823000055,None,284.6830823000055,None,284.6830823000055,None,284.6830823000055,None,284.6830823000055,None,left,1,3.5757568000117317,285.19719080009963,None,288.7967811000999,None,,,,,,,001,130,2019_Aug_24_0805,ninosDelConv2,3.1.5,60.2818538627399,
,,,10,0,61.0,150,,,,,0,13,13,27,,,,,,,,,,,,,,,,,,,,,,,,,,,,,,,,,,,,,,,,,,,,,,,,,,,,,,,,,,,,,,,,,,,,291.7960919000907,None,291.7960919000907,None,291.7960919000907,None,291.7960919000907,None,291.7960919000907,None,right,0,2.3782684999750927,292.3122250000015,None,294.711899499991,None,,,,,,,001,130,2019_Aug_24_0805,ninosDelConv2,3.1.5,60.2818538627399,
,,,5,0,106.0,29,,,,,0,14,14,43,,,,,,,,,,,,,,,,,,,,,,,,,,,,,,,,,,,,,,,,,,,,,,,,,,,,,,,,,,,,,,,,,,,,297.7174806999974,None,297.7174806999974,None,297.7174806999974,None,297.7174806999974,None,297.7174806999974,None,right,1,1.5995312000159174,298.2280034000287,None,299.8441037000157,None,,,,,,,001,130,2019_Aug_24_0805,ninosDelConv2,3.1.5,60.2818538627399,
,,,10,0,110.0,60,,,,,0,15,15,18,,,,,,,,,,,,,,,,,,,,,,,,,,,,,,,,,,,,,,,,,,,,,,,,,,,,,,,,,,,,,,,,,,,,302.8533863000339,None,302.8533863000339,None,302.8533863000339,None,302.8533863000339,None,302.8533863000339,None,left,1,1.5748979999916628,303.3608624000335,None,304.96004690008704,None,,,,,,,001,130,2019_Aug_24_0805,ninosDelConv2,3.1.5,60.2818538627399,
,,,25,0,150.0,4,,,,,0,16,16,64,,,,,,,,,,,,,,,,,,,,,,,,,,,,,,,,,,,,,,,,,,,,,,,,,,,,,,,,,,,,,,,,,,,,307.9677457000362,None,307.9677457000362,None,307.9677457000362,None,307.9677457000362,None,307.9677457000362,None,left,1,1.9609150999458507,308.475623400067,None,310.45859000005294,None,,,,,,,001,130,2019_Aug_24_0805,ninosDelConv2,3.1.5,60.2818538627399,
,,,25,0,75.0,151,,,,,0,17,17,87,,,,,,,,,,,,,,,,,,,,,,,,,,,,,,,,,,,,,,,,,,,,,,,,,,,,,,,,,,,,,,,,,,,,313.45888080005534,None,313.45888080005534,None,313.45888080005534,None,313.45888080005534,None,313.45888080005534,None,left,0,13.970409699948505,313.97472100006416,None,327.97191720001865,None,,,,,,,001,130,2019_Aug_24_0805,ninosDelConv2,3.1.5,60.2818538627399,
,,,5,0,14.0,31,,,,,0,18,18,40,,,,,,,,,,,,,,,,,,,,,,,,,,,,,,,,,,,,,,,,,,,,,,,,,,,,,,,,,,,,,,,,,,,,330.97626020002645,None,330.97626020002645,None,330.97626020002645,None,330.97626020002645,None,330.97626020002645,None,left,0,2.0960101999808103,331.4885624999879,None,333.6041860000696,None,,,,,,,001,130,2019_Aug_24_0805,ninosDelConv2,3.1.5,60.2818538627399,
,,,5,0,54.0,5,,,,,0,19,19,32,,,,,,,,,,,,,,,,,,,,,,,,,,,,,,,,,,,,,,,,,,,,,,,,,,,,,,,,,,,,,,,,,,,,336.603791700094,None,336.603791700094,None,336.603791700094,None,336.603791700094,None,336.603791700094,None,left,1,1.5071000999305397,337.1210320000537,None,338.65354050009046,None,,,,,,,001,130,2019_Aug_24_0805,ninosDelConv2,3.1.5,60.2818538627399,
,,,5,0,55.0,151,,,,,0,20,20,57,,,,,,,,,,,,,,,,,,,,,,,,,,,,,,,,,,,,,,,,,,,,,,,,,,,,,,,,,,,,,,,,,,,,341.65265330008697,None,341.65265330008697,None,341.65265330008697,None,341.65265330008697,None,341.65265330008697,None,left,0,4.55641010007821,342.16985480010044,None,346.7517772000283,None,,,,,,,001,130,2019_Aug_24_0805,ninosDelConv2,3.1.5,60.2818538627399,
,,,25,0,150.0,61,,,,,0,21,21,79,,,,,,,,,,,,,,,,,,,,,,,,,,,,,,,,,,,,,,,,,,,,,,,,,,,,,,,,,,,,,,,,,,,,349.7523683999898,None,349.7523683999898,None,349.7523683999898,None,349.7523683999898,None,349.7523683999898,None,right,0,7.575774600030854,350.26786100002937,None,357.86657910002396,None,,,,,,,001,130,2019_Aug_24_0805,ninosDelConv2,3.1.5,60.2818538627399,
,,,5,0,56.0,9,,,,,0,22,22,37,,,,,,,,,,,,,,,,,,,,,,,,,,,,,,,,,,,,,,,,,,,,,,,,,,,,,,,,,,,,,,,,,,,,360.86706660001073,None,360.86706660001073,None,360.86706660001073,None,360.86706660001073,None,360.86706660001073,None,right,1,3.2582674000877887,361.3822014000034,None,364.66542900004424,None,,,,,,,001,130,2019_Aug_24_0805,ninosDelConv2,3.1.5,60.2818538627399,
,,,5,0,35.0,89,,,,,0,23,23,51,,,,,,,,,,,,,,,,,,,,,,,,,,,,,,,,,,,,,,,,,,,,,,,,,,,,,,,,,,,,,,,,,,,,367.66551750001963,None,367.66551750001963,None,367.66551750001963,None,367.66551750001963,None,367.66551750001963,None,left,0,1.727194600040093,368.18086690001655,None,369.93058730009943,None,,,,,,,001,130,2019_Aug_24_0805,ninosDelConv2,3.1.5,60.2818538627399,
,,,25,0,75.0,31,,,,,0,24,24,72,,,,,,,,,,,,,,,,,,,,,,,,,,,,,,,,,,,,,,,,,,,,,,,,,,,,,,,,,,,,,,,,,,,,372.93185709998943,None,372.93185709998943,None,372.93185709998943,None,372.93185709998943,None,372.93185709998943,None,right,0,3.1093404000857845,373.4475639000302,None,376.579696000088,None,,,,,,,001,130,2019_Aug_24_0805,ninosDelConv2,3.1.5,60.2818538627399,
,,,10,0,40.0,10,,,,,0,25,25,6,,,,,,,,,,,,,,,,,,,,,,,,,,,,,,,,,,,,,,,,,,,,,,,,,,,,,,,,,,,,,,,,,,,,379.5804908000864,None,379.5804908000864,None,379.5804908000864,None,379.5804908000864,None,379.5804908000864,None,right,1,1.7262270000064746,380.09536460007075,None,381.8452535000397,None,,,,,,,001,130,2019_Aug_24_0805,ninosDelConv2,3.1.5,60.2818538627399,
,,,5,0,56.0,89,,,,,0,26,26,52,,,,,,,,,,,,,,,,,,,,,,,,,,,,,,,,,,,,,,,,,,,,,,,,,,,,,,,,,,,,,,,,,,,,384.8460439000046,None,384.8460439000046,None,384.8460439000046,None,384.8460439000046,None,384.8460439000046,None,right,0,6.839491799939424,385.3612197000766,None,392.2267305999994,None,,,,,,,001,130,2019_Aug_24_0805,ninosDelConv2,3.1.5,60.2818538627399,
,,,5,0,56.0,60,,,,,0,27,27,47,,,,,,,,,,,,,,,,,,,,,,,,,,,,,,,,,,,,,,,,,,,,,,,,,,,,,,,,,,,,,,,,,,,,395.22597380005755,None,395.22597380005755,None,395.22597380005755,None,395.22597380005755,None,395.22597380005755,None,left,0,3.3615815000375733,395.74271360004786,None,399.1255679000169,None,,,,,,,001,130,2019_Aug_24_0805,ninosDelConv2,3.1.5,60.2818538627399,
,,,10,0,61.0,4,,,,,0,28,28,2,,,,,,,,,,,,,,,,,,,,,,,,,,,,,,,,,,,,,,,,,,,,,,,,,,,,,,,,,,,,,,,,,,,,402.1255532000214,None,402.1255532000214,None,402.1255532000214,None,402.1255532000214,None,402.1255532000214,None,left,1,1.996568400063552,402.64122410002165,None,404.65770620002877,None,,,,,,,001,130,2019_Aug_24_0805,ninosDelConv2,3.1.5,60.2818538627399,
,,,5,0,149.0,59,,,,,0,29,29,49,,,,,,,,,,,,,,,,,,,,,,,,,,,,,,,,,,,,,,,,,,,,,,,,,,,,,,,,,,,,,,,,,,,,407.659726300044,None,407.659726300044,None,407.659726300044,None,407.659726300044,None,407.659726300044,None,left,1,1.1076894000871107,408.17331129999366,None,409.3067245000275,None,,,,,,,001,130,2019_Aug_24_0805,ninosDelConv2,3.1.5,60.2818538627399,
,,,25,0,35.0,5,,,,,0,30,30,60,,,,,,,,,,,,,,,,,,,,,,,,,,,,,,,,,,,,,,,,,,,,,,,,,,,,,,,,,,,,,,,,,,,,412.30843450000975,None,412.30843450000975,None,412.30843450000975,None,412.30843450000975,None,412.30843450000975,None,left,1,2.5781725000124425,412.8229533000849,None,415.4219278000528,None,,,,,,,001,130,2019_Aug_24_0805,ninosDelConv2,3.1.5,60.2818538627399,
,,,10,0,39.0,29,,,,,0,31,31,11,,,,,,,,,,,,,,,,,,,,,,,,,,,,,,,,,,,,,,,,,,,,,,,,,,,,,,,,,,,,,,,,,,,,418.42331010010093,None,418.42331010010093,None,418.42331010010093,None,418.42331010010093,None,418.42331010010093,None,right,0,1.5036804999690503,418.9379993000766,None,420.4720032000914,None,,,,,,,001,130,2019_Aug_24_0805,ninosDelConv2,3.1.5,60.2818538627399,
,,,25,0,125.0,59,,,,,0,32,32,78,,,,,,,,,,,,,,,,,,,,,,,,,,,,,,,,,,,,,,,,,,,,,,,,,,,,,,,,,,,,,,,,,,,,423.4736580000026,None,423.4736580000026,None,423.4736580000026,None,423.4736580000026,None,423.4736580000026,None,left,1,1.05395299999509,423.98757740005385,None,425.07965450000484,None,,,,,,,001,130,2019_Aug_24_0805,ninosDelConv2,3.1.5,60.2818538627399,
,,,5,0,15.0,11,,,,,0,33,33,35,,,,,,,,,,,,,,,,,,,,,,,,,,,,,,,,,,,,,,,,,,,,,,,,,,,,,,,,,,,,,,,,,,,,428.0745773999952,None,428.0745773999952,None,428.0745773999952,None,428.0745773999952,None,428.0745773999952,None,right,0,3.494712800020352,428.58790660009254,None,432.1033815999981,None,,,,,,,001,130,2019_Aug_24_0805,ninosDelConv2,3.1.5,60.2818538627399,
,,,10,0,109.0,149,,,,,0,34,34,28,,,,,,,,,,,,,,,,,,,,,,,,,,,,,,,,,,,,,,,,,,,,,,,,,,,,,,,,,,,,,,,,,,,,435.1039542000508,None,435.1039542000508,None,435.1039542000508,None,435.1039542000508,None,435.1039542000508,None,left,1,2.5376235999865457,435.6182974000694,None,438.1844365000725,None,,,,,,,001,130,2019_Aug_24_0805,ninosDelConv2,3.1.5,60.2818538627399,
,,,25,0,150.0,9,,,,,0,35,35,69,,,,,,,,,,,,,,,,,,,,,,,,,,,,,,,,,,,,,,,,,,,,,,,,,,,,,,,,,,,,,,,,,,,,441.19010940007865,None,441.19010940007865,None,441.19010940007865,None,441.19010940007865,None,441.19010940007865,None,right,1,1.1834820000221953,441.7004267000593,None,442.90042980003636,None,,,,,,,001,130,2019_Aug_24_0805,ninosDelConv2,3.1.5,60.2818538627399,
,,,5,0,106.0,152,,,,,0,36,36,58,,,,,,,,,,,,,,,,,,,,,,,,,,,,,,,,,,,,,,,,,,,,,,,,,,,,,,,,,,,,,,,,,,,,445.90537950000726,None,445.90537950000726,None,445.90537950000726,None,445.90537950000726,None,445.90537950000726,None,left,1,3.2692918000975624,446.4163695999887,None,449.71542840008624,None,,,,,,,001,130,2019_Aug_24_0805,ninosDelConv2,3.1.5,60.2818538627399,
,,,10,0,39.0,150,,,,,0,37,37,26,,,,,,,,,,,,,,,,,,,,,,,,,,,,,,,,,,,,,,,,,,,,,,,,,,,,,,,,,,,,,,,,,,,,452.7167353000259,None,452.7167353000259,None,452.7167353000259,None,452.7167353000259,None,452.7167353000259,None,left,0,2.27828019997105,453.23151589999907,None,455.53158180008177,None,,,,,,,001,130,2019_Aug_24_0805,ninosDelConv2,3.1.5,60.2818538627399,
,,,25,0,125.0,149,,,,,0,38,38,88,,,,,,,,,,,,,,,,,,,,,,,,,,,,,,,,,,,,,,,,,,,,,,,,,,,,,,,,,,,,,,,,,,,,458.53351560002193,None,458.53351560002193,None,458.53351560002193,None,458.53351560002193,None,458.53351560002193,None,right,1,1.5705493000568822,459.04730850004125,None,460.6469441000372,None,,,,,,,001,130,2019_Aug_24_0805,ninosDelConv2,3.1.5,60.2818538627399,
,,,25,0,75.0,90,,,,,0,39,39,82,,,,,,,,,,,,,,,,,,,,,,,,,,,,,,,,,,,,,,,,,,,,,,,,,,,,,,,,,,,,,,,,,,,,463.64686510001775,None,463.64686510001775,None,463.64686510001775,None,463.64686510001775,None,463.64686510001775,None,right,1,2.1281769000925124,464.1628242000006,None,466.3125784000149,None,,,,,,,001,130,2019_Aug_24_0805,ninosDelConv2,3.1.5,60.2818538627399,
,,,5,0,151.0,150,,,,,0,40,40,59,,,,,,,,,,,,,,,,,,,,,,,,,,,,,,,,,,,,,,,,,,,,,,,,,,,,,,,,,,,,,,,,,,,,469.3136412000749,None,469.3136412000749,None,469.3136412000749,None,469.3136412000749,None,469.3136412000749,None,right,1,2.5791358000133187,469.8286257000873,None,472.4277536000591,None,,,,,,,001,130,2019_Aug_24_0805,ninosDelConv2,3.1.5,60.2818538627399,
,,,10,0,20.0,90,,,,,0,41,41,20,,,,,,,,,,,,,,,,,,,,,,,,,,,,,,,,,,,,,,,,,,,,,,,,,,,,,,,,,,,,,,,,,,,,475.42897380003706,None,475.42897380003706,None,475.42897380003706,None,475.42897380003706,None,475.42897380003706,None,left,0,1.7131867000134662,475.9438867000863,None,477.677563300007,None,,,,,,,001,130,2019_Aug_24_0805,ninosDelConv2,3.1.5,60.2818538627399,
,,,5,0,105.0,60,,,,,0,42,42,48,,,,,,,,,,,,,,,,,,,,,,,,,,,,,,,,,,,,,,,,,,,,,,,,,,,,,,,,,,,,,,,,,,,,480.67767320002895,None,480.67767320002895,None,480.67767320002895,None,480.67767320002895,None,480.67767320002895,None,left,1,4.723465399933048,481.19356440007687,None,485.94215650006663,None,,,,,,,001,130,2019_Aug_24_0805,ninosDelConv2,3.1.5,60.2818538627399,
,,,5,0,14.0,149,,,,,0,43,43,55,,,,,,,,,,,,,,,,,,,,,,,,,,,,,,,,,,,,,,,,,,,,,,,,,,,,,,,,,,,,,,,,,,,,488.9415079000173,None,488.9415079000173,None,488.9415079000173,None,488.9415079000173,None,488.9415079000173,None,left,1,0.7984892999520525,489.45874290005304,None,490.2743707000045,None,,,,,,,001,130,2019_Aug_24_0805,ninosDelConv2,3.1.5,60.2818538627399,
,,,10,0,39.0,59,,,,,0,44,44,16,,,,,,,,,,,,,,,,,,,,,,,,,,,,,,,,,,,,,,,,,,,,,,,,,,,,,,,,,,,,,,,,,,,,493.27488760009874,None,493.27488760009874,None,493.27488760009874,None,493.27488760009874,None,493.27488760009874,None,right,0,3.7886621999787167,493.79058680008166,None,497.6068853000179,None,,,,,,,001,130,2019_Aug_24_0805,ninosDelConv2,3.1.5,60.2818538627399,
,,,25,0,55.0,30,,,,,0,45,45,71,,,,,,,,,,,,,,,,,,,,,,,,,,,,,,,,,,,,,,,,,,,,,,,,,,,,,,,,,,,,,,,,,,,,500.6079435000429,None,500.6079435000429,None,500.6079435000429,None,500.6079435000429,None,500.6079435000429,None,left,0,1.8585655000060797,501.12264389998745,None,503.0052747000009,None,,,,,,,001,130,2019_Aug_24_0805,ninosDelConv2,3.1.5,60.2818538627399,
,,,5,0,35.0,6,,,,,0,46,46,31,,,,,,,,,,,,,,,,,,,,,,,,,,,,,,,,,,,,,,,,,,,,,,,,,,,,,,,,,,,,,,,,,,,,506.0078198000556,None,506.0078198000556,None,506.0078198000556,None,506.0078198000556,None,506.0078198000556,None,left,1,1.5410463999724016,506.5214838000247,None,508.0878536000382,None,,,,,,,001,130,2019_Aug_24_0805,ninosDelConv2,3.1.5,60.2818538627399,
,,,25,0,55.0,6,,,,,0,47,47,61,,,,,,,,,,,,,,,,,,,,,,,,,,,,,,,,,,,,,,,,,,,,,,,,,,,,,,,,,,,,,,,,,,,,511.0872314000735,None,511.0872314000735,None,511.0872314000735,None,511.0872314000735,None,511.0872314000735,None,right,0,3.4266606000019237,511.6035889000632,None,515.0531262999866,None,,,,,,,001,130,2019_Aug_24_0805,ninosDelConv2,3.1.5,60.2818538627399,
,,,25,0,125.0,89,,,,,0,48,48,83,,,,,,,,,,,,,,,,,,,,,,,,,,,,,,,,,,,,,,,,,,,,,,,,,,,,,,,,,,,,,,,,,,,,518.0526069999905,None,518.0526069999905,None,518.0526069999905,None,518.0526069999905,None,518.0526069999905,None,left,1,5.009957200032659,518.5698023000732,None,523.6016624000622,None,,,,,,,001,130,2019_Aug_24_0805,ninosDelConv2,3.1.5,60.2818538627399,
,,,25,0,55.0,151,,,,,0,49,49,86,,,,,,,,,,,,,,,,,,,,,,,,,,,,,,,,,,,,,,,,,,,,,,,,,,,,,,,,,,,,,,,,,,,,526.6018487000838,None,526.6018487000838,None,526.6018487000838,None,526.6018487000838,None,526.6018487000838,None,right,0,1.7456086999736726,527.1173624000512,None,528.8835695000598,None,,,,,,,001,130,2019_Aug_24_0805,ninosDelConv2,3.1.5,60.2818538627399,
,,,5,0,151.0,4,,,,,0,50,50,34,,,,,,,,,,,,,,,,,,,,,,,,,,,,,,,,,,,,,,,,,,,,,,,,,,,,,,,,,,,,,,,,,,,,531.8880789000541,None,531.8880789000541,None,531.8880789000541,None,531.8880789000541,None,531.8880789000541,None,right,1,1.1019112999783829,532.3997070000041,None,533.5341018000618,None,,,,,,,001,130,2019_Aug_24_0805,ninosDelConv2,3.1.5,60.2818538627399,
,,,10,0,40.0,91,,,,,0,51,51,21,,,,,,,,,,,,,,,,,,,,,,,,,,,,,,,,,,,,,,,,,,,,,,,,,,,,,,,,,,,,,,,,,,,,536.5348300000187,None,536.5348300000187,None,536.5348300000187,None,536.5348300000187,None,536.5348300000187,None,left,0,1.8867755000246689,537.0490924000042,None,538.9649900000077,None,,,,,,,001,130,2019_Aug_24_0805,ninosDelConv2,3.1.5,60.2818538627399,
,,,25,0,150.0,89,,,,,0,52,52,84,,,,,,,,,,,,,,,,,,,,,,,,,,,,,,,,,,,,,,,,,,,,,,,,,,,,,,,,,,,,,,,,,,,,541.9659783000825,None,541.9659783000825,None,541.9659783000825,None,541.9659783000825,None,541.9659783000825,None,left,1,0.9470297999214381,542.4813568000682,None,543.4476555000292,None,,,,,,,001,130,2019_Aug_24_0805,ninosDelConv2,3.1.5,60.2818538627399,
,,,10,0,20.0,5,,,,,0,53,53,0,,,,,,,,,,,,,,,,,,,,,,,,,,,,,,,,,,,,,,,,,,,,,,,,,,,,,,,,,,,,,,,,,,,,546.4531082999893,None,546.4531082999893,None,546.4531082999893,None,546.4531082999893,None,546.4531082999893,None,right,1,1.448587300023064,546.9661051000003,None,548.4299883000785,None,,,,,,,001,130,2019_Aug_24_0805,ninosDelConv2,3.1.5,60.2818538627399,
,,,25,0,35.0,11,,,,,0,54,54,65,,,,,,,,,,,,,,,,,,,,,,,,,,,,,,,,,,,,,,,,,,,,,,,,,,,,,,,,,,,,,,,,,,,,551.4315695000114,None,551.4315695000114,None,551.4315695000114,None,551.4315695000114,None,551.4315695000114,None,left,0,10.456152500002645,551.9462327000219,None,562.4273619999876,None,,,,,,,001,130,2019_Aug_24_0805,ninosDelConv2,3.1.5,60.2818538627399,
,,,5,0,104.0,90,,,,,0,55,55,53,,,,,,,,,,,,,,,,,,,,,,,,,,,,,,,,,,,,,,,,,,,,,,,,,,,,,,,,,,,,,,,,,,,,565.4286169999978,None,565.4286169999978,None,565.4286169999978,None,565.4286169999978,None,565.4286169999978,None,left,1,1.1164662999799475,565.9436044000322,None,567.0764793000417,None,,,,,,,001,130,2019_Aug_24_0805,ninosDelConv2,3.1.5,60.2818538627399,
,,,25,0,125.0,31,,,,,0,56,56,73,,,,,,,,,,,,,,,,,,,,,,,,,,,,,,,,,,,,,,,,,,,,,,,,,,,,,,,,,,,,,,,,,,,,570.0788765000179,None,570.0788765000179,None,570.0788765000179,None,570.0788765000179,None,570.0788765000179,None,left,1,4.326825800002553,570.5928225000389,None,574.9429176000413,None,,,,,,,001,130,2019_Aug_24_0805,ninosDelConv2,3.1.5,60.2818538627399,
,,,25,0,35.0,30,,,,,0,57,57,70,,,,,,,,,,,,,,,,,,,,,,,,,,,,,,,,,,,,,,,,,,,,,,,,,,,,,,,,,,,,,,,,,,,,577.9418540000916,None,577.9418540000916,None,577.9418540000916,None,577.9418540000916,None,577.9418540000916,None,right,0,1.3059403999941424,578.457746900036,None,579.7907468000194,None,,,,,,,001,130,2019_Aug_24_0805,ninosDelConv2,3.1.5,60.2818538627399,
,,,25,0,55.0,60,,,,,0,58,58,76,,,,,,,,,,,,,,,,,,,,,,,,,,,,,,,,,,,,,,,,,,,,,,,,,,,,,,,,,,,,,,,,,,,,582.7905898999888,None,582.7905898999888,None,582.7905898999888,None,582.7905898999888,None,582.7905898999888,None,right,0,9.157739599933848,583.3066844000714,None,592.4883703000378,None,,,,,,,001,130,2019_Aug_24_0805,ninosDelConv2,3.1.5,60.2818538627399,
,,,10,0,59.0,9,,,,,0,59,59,7,,,,,,,,,,,,,,,,,,,,,,,,,,,,,,,,,,,,,,,,,,,,,,,,,,,,,,,,,,,,,,,,,,,,595.4943654000526,None,595.4943654000526,None,595.4943654000526,None,595.4943654000526,None,595.4943654000526,None,right,1,1.2191681999247521,596.0044581000693,None,597.2540416000411,None,,,,,,,001,130,2019_Aug_24_0805,ninosDelConv2,3.1.5,60.2818538627399,
,,,5,0,150.0,90,,,,,0,60,60,54,,,,,,,,,,,,,,,,,,,,,,,,,,,,,,,,,,,,,,,,,,,,,,,,,,,,,,,,,,,,,,,,,,,,600.2563520000549,None,600.2563520000549,None,600.2563520000549,None,600.2563520000549,None,600.2563520000549,None,right,1,0.5180238001048565,600.7702241000952,None,601.3032710000407,None,,,,,,,001,130,2019_Aug_24_0805,ninosDelConv2,3.1.5,60.2818538627399,
,,,10,0,19.0,11,,,,,0,61,61,5,,,,,,,,,,,,,,,,,,,,,,,,,,,,,,,,,,,,,,,,,,,,,,,,,,,,,,,,,,,,,,,,,,,,604.3059370000847,None,604.3059370000847,None,604.3059370000847,None,604.3059370000847,None,604.3059370000847,None,right,1,1.0141542999772355,604.8193562000524,None,605.8525399999926,None,,,,,,,001,130,2019_Aug_24_0805,ninosDelConv2,3.1.5,60.2818538627399,
,,,25,0,35.0,60,,,,,0,62,62,75,,,,,,,,,,,,,,,,,,,,,,,,,,,,,,,,,,,,,,,,,,,,,,,,,,,,,,,,,,,,,,,,,,,,608.8603295000503,None,608.8603295000503,None,608.8603295000503,None,608.8603295000503,None,608.8603295000503,None,left,0,2.15169440000318,609.3687669000356,None,611.5516305000056,None,,,,,,,001,130,2019_Aug_24_0805,ninosDelConv2,3.1.5,60.2818538627399,
,,,25,0,55.0,11,,,,,0,63,63,66,,,,,,,,,,,,,,,,,,,,,,,,,,,,,,,,,,,,,,,,,,,,,,,,,,,,,,,,,,,,,,,,,,,,614.5509818000719,None,614.5509818000719,None,614.5509818000719,None,614.5509818000719,None,614.5509818000719,None,right,1,2.141972600016743,615.0676685000071,None,617.2338157000486,None,,,,,,,001,130,2019_Aug_24_0805,ninosDelConv2,3.1.5,60.2818538627399,
,,,10,0,149.0,89,,,,,0,64,64,24,,,,,,,,,,,,,,,,,,,,,,,,,,,,,,,,,,,,,,,,,,,,,,,,,,,,,,,,,,,,,,,,,,,,620.23488740006,None,620.23488740006,None,620.23488740006,None,620.23488740006,None,620.23488740006,None,left,1,4.261968599981628,620.7496124000754,None,625.032099800068,None,,,,,,,001,130,2019_Aug_24_0805,ninosDelConv2,3.1.5,60.2818538627399,
,,,10,0,111.0,30,,,,,0,65,65,13,,,,,,,,,,,,,,,,,,,,,,,,,,,,,,,,,,,,,,,,,,,,,,,,,,,,,,,,,,,,,,,,,,,,628.0315047000768,None,628.0315047000768,None,628.0315047000768,None,628.0315047000768,None,628.0315047000768,None,right,1,3.501168300048448,628.5479744999902,None,632.0646219000919,None,,,,,,,001,130,2019_Aug_24_0805,ninosDelConv2,3.1.5,60.2818538627399,
,,,10,0,150.0,5,,,,,0,66,66,4,,,,,,,,,,,,,,,,,,,,,,,,,,,,,,,,,,,,,,,,,,,,,,,,,,,,,,,,,,,,,,,,,,,,635.0634988000384,None,635.0634988000384,None,635.0634988000384,None,635.0634988000384,None,635.0634988000384,None,right,1,1.6058895000023767,635.5804940999951,None,637.213939200039,None,,,,,,,001,130,2019_Aug_24_0805,ninosDelConv2,3.1.5,60.2818538627399,
,,,5,0,35.0,31,,,,,0,67,67,41,,,,,,,,,,,,,,,,,,,,,,,,,,,,,,,,,,,,,,,,,,,,,,,,,,,,,,,,,,,,,,,,,,,,640.2158642000286,None,640.2158642000286,None,640.2158642000286,None,640.2158642000286,None,640.2158642000286,None,left,1,2.5745797998970374,640.7290835999884,None,643.3288000000175,None,,,,,,,001,130,2019_Aug_24_0805,ninosDelConv2,3.1.5,60.2818538627399,
,,,10,0,150.0,30,,,,,0,68,68,14,,,,,,,,,,,,,,,,,,,,,,,,,,,,,,,,,,,,,,,,,,,,,,,,,,,,,,,,,,,,,,,,,,,,646.3491800000193,None,646.3491800000193,None,646.3491800000193,None,646.3491800000193,None,646.3491800000193,None,right,1,1.1494369000429288,646.845235100016,None,648.0108536999905,None,,,,,,,001,130,2019_Aug_24_0805,ninosDelConv2,3.1.5,60.2818538627399,
,,,25,0,75.0,59,,,,,0,69,69,77,,,,,,,,,,,,,,,,,,,,,,,,,,,,,,,,,,,,,,,,,,,,,,,,,,,,,,,,,,,,,,,,,,,,651.011901000049,None,651.011901000049,None,651.011901000049,None,651.011901000049,None,651.011901000049,None,left,1,1.8896889999741688,651.5270236000651,None,653.4433558000019,None,,,,,,,001,130,2019_Aug_24_0805,ninosDelConv2,3.1.5,60.2818538627399,
,,,10,0,20.0,59,,,,,0,70,70,15,,,,,,,,,,,,,,,,,,,,,,,,,,,,,,,,,,,,,,,,,,,,,,,,,,,,,,,,,,,,,,,,,,,,656.4432384000393,None,656.4432384000393,None,656.4432384000393,None,656.4432384000393,None,656.4432384000393,None,left,0,1.4085668000625446,656.9598734000465,None,658.3926075000782,None,,,,,,,001,130,2019_Aug_24_0805,ninosDelConv2,3.1.5,60.2818538627399,
,,,5,0,56.0,29,,,,,0,71,71,42,,,,,,,,,,,,,,,,,,,,,,,,,,,,,,,,,,,,,,,,,,,,,,,,,,,,,,,,,,,,,,,,,,,,661.3943257000064,None,661.3943257000064,None,661.3943257000064,None,661.3943257000064,None,661.3943257000064,None,right,1,2.5095391999930143,661.9086186999921,None,664.4418127000099,None,,,,,,,001,130,2019_Aug_24_0805,ninosDelConv2,3.1.5,60.2818538627399,
,,,25,0,55.0,90,,,,,0,72,72,81,,,,,,,,,,,,,,,,,,,,,,,,,,,,,,,,,,,,,,,,,,,,,,,,,,,,,,,,,,,,,,,,,,,,667.4440347000491,None,667.4440347000491,None,667.4440347000491,None,667.4440347000491,None,667.4440347000491,None,left,0,1.5357864999677986,667.9582206000341,None,669.5241878000088,None,,,,,,,001,130,2019_Aug_24_0805,ninosDelConv2,3.1.5,60.2818538627399,
,,,25,0,35.0,150,,,,,0,73,73,85,,,,,,,,,,,,,,,,,,,,,,,,,,,,,,,,,,,,,,,,,,,,,,,,,,,,,,,,,,,,,,,,,,,,672.5253082000418,None,672.5253082000418,None,672.5253082000418,None,672.5253082000418,None,672.5253082000418,None,right,0,13.580601599998772,673.0405839000596,None,686.637053100043,None,,,,,,,001,130,2019_Aug_24_0805,ninosDelConv2,3.1.5,60.2818538627399,
,,,5,0,36.0,9,,,,,0,74,74,36,,,,,,,,,,,,,,,,,,,,,,,,,,,,,,,,,,,,,,,,,,,,,,,,,,,,,,,,,,,,,,,,,,,,689.6381679000333,None,689.6381679000333,None,689.6381679000333,None,689.6381679000333,None,689.6381679000333,None,right,1,8.112129400018603,690.153587100096,None,698.2851411000593,None,,,,,,,001,130,2019_Aug_24_0805,ninosDelConv2,3.1.5,60.2818538627399,
,,,5,0,15.0,91,,,,,0,75,75,50,,,,,,,,,,,,,,,,,,,,,,,,,,,,,,,,,,,,,,,,,,,,,,,,,,,,,,,,,,,,,,,,,,,,701.2842756999889,None,701.2842756999889,None,701.2842756999889,None,701.2842756999889,None,701.2842756999889,None,right,1,1.2725855000317097,701.8012192000169,None,703.1007622000761,None,,,,,,,001,130,2019_Aug_24_0805,ninosDelConv2,3.1.5,60.2818538627399,
,,,5,0,35.0,150,,,,,0,76,76,56,,,,,,,,,,,,,,,,,,,,,,,,,,,,,,,,,,,,,,,,,,,,,,,,,,,,,,,,,,,,,,,,,,,,706.0999381000875,None,706.0999381000875,None,706.0999381000875,None,706.0999381000875,None,706.0999381000875,None,right,1,2.023228299920447,706.6178902999964,None,708.666478500003,None,,,,,,,001,130,2019_Aug_24_0805,ninosDelConv2,3.1.5,60.2818538627399,
,,,10,0,149.0,61,,,,,0,77,77,19,,,,,,,,,,,,,,,,,,,,,,,,,,,,,,,,,,,,,,,,,,,,,,,,,,,,,,,,,,,,,,,,,,,,711.6678842999972,None,711.6678842999972,None,711.6678842999972,None,711.6678842999972,None,711.6678842999972,None,left,1,1.785415600053966,712.1829969000537,None,713.9984246999957,None,,,,,,,001,130,2019_Aug_24_0805,ninosDelConv2,3.1.5,60.2818538627399,
,,,10,0,39.0,6,,,,,0,78,78,1,,,,,,,,,,,,,,,,,,,,,,,,,,,,,,,,,,,,,,,,,,,,,,,,,,,,,,,,,,,,,,,,,,,,717.0003253000323,None,717.0003253000323,None,717.0003253000323,None,717.0003253000323,None,717.0003253000323,None,left,1,1.4187245999928564,717.5146893000929,None,718.9645399000729,None,,,,,,,001,130,2019_Aug_24_0805,ninosDelConv2,3.1.5,60.2818538627399,
,,,25,0,125.0,4,,,,,0,79,79,63,,,,,,,,,,,,,,,,,,,,,,,,,,,,,,,,,,,,,,,,,,,,,,,,,,,,,,,,,,,,,,,,,,,,721.9669491000241,None,721.9669491000241,None,721.9669491000241,None,721.9669491000241,None,721.9669491000241,None,left,1,0.8716674000024796,722.4801041000756,None,723.3803616000805,None,,,,,,,001,130,2019_Aug_24_0805,ninosDelConv2,3.1.5,60.2818538627399,
,,,10,0,61.0,89,,,,,0,80,80,22,,,,,,,,,,,,,,,,,,,,,,,,,,,,,,,,,,,,,,,,,,,,,,,,,,,,,,,,,,,,,,,,,,,,726.3815991000738,None,726.3815991000738,None,726.3815991000738,None,726.3815991000738,None,726.3815991000738,None,left,1,3.993575199972838,726.896080100094,None,730.9121836000122,None,,,,,,,001,130,2019_Aug_24_0805,ninosDelConv2,3.1.5,60.2818538627399,
,,,10,0,111.0,10,,,,,0,81,81,8,,,,,,,,,,,,,,,,,,,,,,,,,,,,,,,,,,,,,,,,,,,,,,,,,,,,,,,,,,,,,,,,,,,,733.9116352000274,None,733.9116352000274,None,733.9116352000274,None,733.9116352000274,None,733.9116352000274,None,right,1,8.390485599986278,734.4283031000523,None,742.8430035000201,None,,,,,,,001,130,2019_Aug_24_0805,ninosDelConv2,3.1.5,60.2818538627399,
,,,5,0,36.0,61,,,,,0,82,82,46,,,,,,,,,,,,,,,,,,,,,,,,,,,,,,,,,,,,,,,,,,,,,,,,,,,,,,,,,,,,,,,,,,,,745.8488703999901,None,745.8488703999901,None,745.8488703999901,None,745.8488703999901,None,745.8488703999901,None,left,1,2.938932799967006,746.3592307000654,None,749.3267166999867,None,,,,,,,001,130,2019_Aug_24_0805,ninosDelConv2,3.1.5,60.2818538627399,
,,,25,0,125.0,9,,,,,0,83,83,68,,,,,,,,,,,,,,,,,,,,,,,,,,,,,,,,,,,,,,,,,,,,,,,,,,,,,,,,,,,,,,,,,,,,752.3270379999885,None,752.3270379999885,None,752.3270379999885,None,752.3270379999885,None,752.3270379999885,None,right,1,1.4583353999769315,752.841338600032,None,754.3242643000558,None,,,,,,,001,130,2019_Aug_24_0805,ninosDelConv2,3.1.5,60.2818538627399,
,,,10,0,21.0,31,,,,,0,84,84,10,,,,,,,,,,,,,,,,,,,,,,,,,,,,,,,,,,,,,,,,,,,,,,,,,,,,,,,,,,,,,,,,,,,,757.3301911000162,None,757.3301911000162,None,757.3301911000162,None,757.3301911000162,None,757.3301911000162,None,left,0,3.129561400040984,757.8402773000998,None,760.9895531000802,None,,,,,,,001,130,2019_Aug_24_0805,ninosDelConv2,3.1.5,60.2818538627399,
,,,10,0,151.0,11,,,,,0,85,85,9,,,,,,,,,,,,,,,,,,,,,,,,,,,,,,,,,,,,,,,,,,,,,,,,,,,,,,,,,,,,,,,,,,,,763.9897688000929,None,763.9897688000929,None,763.9897688000929,None,763.9897688000929,None,763.9897688000929,None,right,1,2.320570799987763,764.5064772000769,None,766.8553827001015,None,,,,,,,001,130,2019_Aug_24_0805,ninosDelConv2,3.1.5,60.2818538627399,
,,,5,0,149.0,10,,,,,0,86,86,39,,,,,,,,,,,,,,,,,,,,,,,,,,,,,,,,,,,,,,,,,,,,,,,,,,,,,,,,,,,,,,,,,,,,769.8578802000266,None,769.8578802000266,None,769.8578802000266,None,769.8578802000266,None,769.8578802000266,None,right,1,1.1046362000051886,770.3711417000741,None,771.5043733000057,None,,,,,,,001,130,2019_Aug_24_0805,ninosDelConv2,3.1.5,60.2818538627399,
,,,10,0,10.01,150,,,,,0,87,87,25,,,,,,,,,,,,,,,,,,,,,,,,,,,,,,,,,,,,,,,,,,,,,,,,,,,,,,,,,,,,,,,,,,,,774.5054683000781,None,774.5054683000781,None,774.5054683000781,None,774.5054683000781,None,774.5054683000781,None,left,0,2.90411350002978,775.0200930000283,None,777.9533610000508,None,,,,,,,001,130,2019_Aug_24_0805,ninosDelConv2,3.1.5,60.2818538627399,
,,,25,0,35.0,90,,,,,0,88,88,80,,,,,,,,,,,,,,,,,,,,,,,,,,,,,,,,,,,,,,,,,,,,,,,,,,,,,,,,,,,,,,,,,,,,780.9599809000501,None,780.9599809000501,None,780.9599809000501,None,780.9599809000501,None,780.9599809000501,None,left,0,2.1419767999323085,781.4692664000904,None,783.6353903000709,None,,,,,,,001,130,2019_Aug_24_0805,ninosDelConv2,3.1.5,60.2818538627399,
,,,5,0,16.0,4,,,,,0,89,89,30,,,,,,,,,,,,,,,,,,,,,,,,,,,,,,,,,,,,,,,,,,,,,,,,,,,,,,,,,,,,,,,,,,,,786.6366278000642,None,786.6366278000642,None,786.6366278000642,None,786.6366278000642,None,786.6366278000642,None,left,1,1.9078278999077156,787.1518991000485,None,789.0845228000544,None,,,,,,,001,130,2019_Aug_24_0805,ninosDelConv2,3.1.5,60.2818538627399,
,,,,,,,,,,,,,,,,,,,,,,,,,,,,,,,,,,,,,,,,,,,,,,,,,,,,,,,,,,,,,,,,,,,,,,,,,,,,,,,,,,,,,,,,,,,,,,,,,,,792.0835947000887,None,space,11.443982600001618,792.0835947000887,None,001,130,2019_Aug_24_0805,ninosDelConv2,3.1.5,60.2818538627399,
