key1.keys,key1.rt,key2.keys,key2.rt,key2_2.keys,key2_2.rt,key2_3.keys,key2_3.rt,key3.keys,key3.rt,key4.keys,key4.rt,respP.keys,respP.corr,Practice.thisRepN,Practice.thisTrialN,Practice.thisN,Practice.thisIndex,Practice.ran,ssAmount,llAmount,llDelay,session,participant,date,expName,psychopyVersion,OS,frameRate,respP.rt,key5.keys,key5.rt,respT.keys,respT.corr,respT.rt,trials.thisRepN,trials.thisTrialN,trials.thisN,trials.thisIndex,trials.ran,ss_am,ss_del,ll_am,ll_del
space,5.48247,space,24.70537,space,3.172015,space,2.83166,right,8.450595,space,1.79971,,0.0,0.0,0.0,0.0,1.0,1.0,25000.0,35000.0,150.0,2,137,2020-11-12_11h21.34.485,tareaTDv3,2020.2.5,Win32,60,,,,,,,,,,,,,,,
,,,,,,,,,,,,right,1.0,0.0,1.0,1.0,0.0,1.0,10000.0,109000.0,9.0,2,137,2020-11-12_11h21.34.485,tareaTDv3,2020.2.5,Win32,60,8.685945,,,,,,,,,,,,,,
,,,,,,,,,,,,left,0.0,0.0,2.0,2.0,2.0,1.0,10000.0,19000.0,89.0,2,137,2020-11-12_11h21.34.485,tareaTDv3,2020.2.5,Win32,60,3.718905,,,,,,,,,,,,,,
,,,,,,,,,,,,,,,,,,,,,,2,137,2020-11-12_11h21.34.485,tareaTDv3,2020.2.5,Win32,60,,g,8.499765,left,0.0,4.710975,0.0,0.0,0.0,57.0,1.0,5000.0,0.0,55000.0,151.0
,,,,,,,,,,,,,,,,,,,,,,2,137,2020-11-12_11h21.34.485,tareaTDv3,2020.2.5,Win32,60,,,,left,0.0,3.81875,0.0,1.0,1.0,12.0,1.0,10000.0,0.0,60000.0,29.0
,,,,,,,,,,,,,,,,,,,,,,2,137,2020-11-12_11h21.34.485,tareaTDv3,2020.2.5,Win32,60,,,,right,0.0,3.184795,0.0,2.0,2.0,85.0,1.0,25000.0,0.0,35000.0,150.0
,,,,,,,,,,,,,,,,,,,,,,2,137,2020-11-12_11h21.34.485,tareaTDv3,2020.2.5,Win32,60,,,,left,0.0,5.214735,0.0,3.0,3.0,46.0,1.0,5000.0,0.0,36000.0,61.0
,,,,,,,,,,,,,,,,,,,,,,2,137,2020-11-12_11h21.34.485,tareaTDv3,2020.2.5,Win32,60,,,,right,0.0,4.289905,0.0,4.0,4.0,40.0,1.0,5000.0,0.0,14000.0,31.0
,,,,,,,,,,,,,,,,,,,,,,2,137,2020-11-12_11h21.34.485,tareaTDv3,2020.2.5,Win32,60,,,,left,1.0,4.17051,0.0,5.0,5.0,11.0,1.0,10000.0,0.0,39000.0,29.0
,,,,,,,,,,,,,,,,,,,,,,2,137,2020-11-12_11h21.34.485,tareaTDv3,2020.2.5,Win32,60,,,,left,1.0,1.261525,0.0,6.0,6.0,34.0,1.0,5000.0,0.0,151000.0,4.0
,,,,,,,,,,,,,,,,,,,,,,2,137,2020-11-12_11h21.34.485,tareaTDv3,2020.2.5,Win32,60,,,,right,0.0,3.20293,0.0,7.0,7.0,29.0,1.0,10000.0,0.0,151000.0,151.0
,,,,,,,,,,,,,,,,,,,,,,2,137,2020-11-12_11h21.34.485,tareaTDv3,2020.2.5,Win32,60,,,,left,1.0,3.319685,0.0,8.0,8.0,22.0,1.0,10000.0,0.0,61000.0,89.0
,,,,,,,,,,,,,,,,,,,,,,2,137,2020-11-12_11h21.34.485,tareaTDv3,2020.2.5,Win32,60,,,,right,0.0,1.80335,0.0,9.0,9.0,25.0,1.0,10000.0,0.0,10000.0,150.0
,,,,,,,,,,,,,,,,,,,,,,2,137,2020-11-12_11h21.34.485,tareaTDv3,2020.2.5,Win32,60,,,,left,0.0,1.30812,0.0,10.0,10.0,15.0,1.0,10000.0,0.0,20000.0,59.0
,,,,,,,,,,,,,,,,,,,,,,2,137,2020-11-12_11h21.34.485,tareaTDv3,2020.2.5,Win32,60,,,,left,1.0,1.202405,0.0,11.0,11.0,60.0,1.0,25000.0,0.0,35000.0,5.0
,,,,,,,,,,,,,,,,,,,,,,2,137,2020-11-12_11h21.34.485,tareaTDv3,2020.2.5,Win32,60,,,,right,1.0,1.97452,0.0,12.0,12.0,48.0,1.0,5000.0,0.0,105000.0,60.0
,,,,,,,,,,,,,,,,,,,,,,2,137,2020-11-12_11h21.34.485,tareaTDv3,2020.2.5,Win32,60,,,,right,1.0,1.11675,0.0,13.0,13.0,39.0,1.0,5000.0,0.0,149000.0,10.0
,,,,,,,,,,,,,,,,,,,,,,2,137,2020-11-12_11h21.34.485,tareaTDv3,2020.2.5,Win32,60,,,,left,0.0,1.902265,0.0,14.0,14.0,17.0,1.0,10000.0,0.0,60000.0,60.0
,,,,,,,,,,,,,,,,,,,,,,2,137,2020-11-12_11h21.34.485,tareaTDv3,2020.2.5,Win32,60,,,,right,0.0,3.2723,0.0,15.0,15.0,19.0,1.0,10000.0,0.0,149000.0,61.0
,,,,,,,,,,,,,,,,,,,,,,2,137,2020-11-12_11h21.34.485,tareaTDv3,2020.2.5,Win32,60,,,,right,1.0,1.4038,0.0,16.0,16.0,43.0,1.0,5000.0,0.0,106000.0,29.0
,,,,,,,,,,,,,,,,,,,,,,2,137,2020-11-12_11h21.34.485,tareaTDv3,2020.2.5,Win32,60,,,,left,1.0,3.46049,0.0,17.0,17.0,74.0,1.0,25000.0,0.0,150000.0,29.0
,,,,,,,,,,,,,,,,,,,,,,2,137,2020-11-12_11h21.34.485,tareaTDv3,2020.2.5,Win32,60,,,,right,1.0,1.74337,0.0,18.0,18.0,65.0,1.0,25000.0,0.0,35000.0,11.0
,,,,,,,,,,,,,,,,,,,,,,2,137,2020-11-12_11h21.34.485,tareaTDv3,2020.2.5,Win32,60,,,,left,0.0,2.2167,0.0,19.0,19.0,71.0,1.0,25000.0,0.0,55000.0,30.0
,,,,,,,,,,,,,,,,,,,,,,2,137,2020-11-12_11h21.34.485,tareaTDv3,2020.2.5,Win32,60,,,,right,1.0,1.104675,0.0,20.0,20.0,67.0,1.0,25000.0,0.0,75000.0,10.0
,,,,,,,,,,,,,,,,,,,,,,2,137,2020-11-12_11h21.34.485,tareaTDv3,2020.2.5,Win32,60,,,,left,0.0,1.23903,0.0,21.0,21.0,82.0,1.0,25000.0,0.0,75000.0,90.0
,,,,,,,,,,,,,,,,,,,,,,2,137,2020-11-12_11h21.34.485,tareaTDv3,2020.2.5,Win32,60,,,,left,1.0,1.641725,0.0,22.0,22.0,36.0,1.0,5000.0,0.0,36000.0,9.0
,,,,,,,,,,,,,,,,,,,,,,2,137,2020-11-12_11h21.34.485,tareaTDv3,2020.2.5,Win32,60,,,,right,0.0,2.251745,0.0,23.0,23.0,52.0,1.0,5000.0,0.0,56000.0,89.0
,,,,,,,,,,,,,,,,,,,,,,2,137,2020-11-12_11h21.34.485,tareaTDv3,2020.2.5,Win32,60,,,,left,0.0,1.16699,0.0,24.0,24.0,26.0,1.0,10000.0,0.0,39000.0,150.0
,,,,,,,,,,,,,,,,,,,,,,2,137,2020-11-12_11h21.34.485,tareaTDv3,2020.2.5,Win32,60,,,,left,0.0,2.570545,0.0,25.0,25.0,50.0,1.0,5000.0,0.0,15000.0,91.0
,,,,,,,,,,,,,,,,,,,,,,2,137,2020-11-12_11h21.34.485,tareaTDv3,2020.2.5,Win32,60,,,,right,1.0,3.109085,0.0,26.0,26.0,45.0,1.0,5000.0,0.0,15000.0,61.0
,,,,,,,,,,,,,,,,,,,,,,2,137,2020-11-12_11h21.34.485,tareaTDv3,2020.2.5,Win32,60,,,,right,0.0,2.17206,0.0,27.0,27.0,51.0,1.0,5000.0,0.0,35000.0,89.0
,,,,,,,,,,,,,,,,,,,,,,2,137,2020-11-12_11h21.34.485,tareaTDv3,2020.2.5,Win32,60,,,,right,1.0,2.009345,0.0,28.0,28.0,41.0,1.0,5000.0,0.0,35000.0,31.0
,,,,,,,,,,,,,,,,,,,,,,2,137,2020-11-12_11h21.34.485,tareaTDv3,2020.2.5,Win32,60,,,,right,1.0,2.999645,0.0,29.0,29.0,8.0,1.0,10000.0,0.0,111000.0,10.0
,,,,,,,,,,,,,,,,,,,,,,2,137,2020-11-12_11h21.34.485,tareaTDv3,2020.2.5,Win32,60,,,,left,1.0,1.32028,0.0,30.0,30.0,7.0,1.0,10000.0,0.0,59000.0,9.0
,,,,,,,,,,,,,,,,,,,,,,2,137,2020-11-12_11h21.34.485,tareaTDv3,2020.2.5,Win32,60,,,,right,0.0,4.068795,0.0,31.0,31.0,16.0,1.0,10000.0,0.0,39000.0,59.0
,,,,,,,,,,,,,,,,,,,,,,2,137,2020-11-12_11h21.34.485,tareaTDv3,2020.2.5,Win32,60,,,,right,1.0,4.97562,0.0,32.0,32.0,18.0,1.0,10000.0,0.0,110000.0,60.0
,,,,,,,,,,,,,,,,,,,,,,2,137,2020-11-12_11h21.34.485,tareaTDv3,2020.2.5,Win32,60,,,,left,1.0,2.6011,0.0,33.0,33.0,6.0,1.0,10000.0,0.0,40000.0,10.0
,,,,,,,,,,,,,,,,,,,,,,2,137,2020-11-12_11h21.34.485,tareaTDv3,2020.2.5,Win32,60,,,,left,1.0,1.65508,0.0,34.0,34.0,38.0,1.0,5000.0,0.0,104000.0,10.0
,,,,,,,,,,,,,,,,,,,,,,2,137,2020-11-12_11h21.34.485,tareaTDv3,2020.2.5,Win32,60,,,,left,0.0,4.71821,0.0,35.0,35.0,66.0,1.0,25000.0,0.0,55000.0,11.0
,,,,,,,,,,,,,,,,,,,,,,2,137,2020-11-12_11h21.34.485,tareaTDv3,2020.2.5,Win32,60,,,,right,0.0,3.729195,0.0,36.0,36.0,83.0,1.0,25000.0,0.0,125000.0,89.0
,,,,,,,,,,,,,,,,,,,,,,2,137,2020-11-12_11h21.34.485,tareaTDv3,2020.2.5,Win32,60,,,,left,0.0,2.36852,0.0,37.0,37.0,5.0,1.0,10000.0,0.0,19000.0,11.0
,,,,,,,,,,,,,,,,,,,,,,2,137,2020-11-12_11h21.34.485,tareaTDv3,2020.2.5,Win32,60,,,,right,1.0,0.939085,0.0,38.0,38.0,30.0,1.0,5000.0,0.0,16000.0,4.0
,,,,,,,,,,,,,,,,,,,,,,2,137,2020-11-12_11h21.34.485,tareaTDv3,2020.2.5,Win32,60,,,,right,0.0,1.144625,0.0,39.0,39.0,77.0,1.0,25000.0,0.0,75000.0,59.0
,,,,,,,,,,,,,,,,,,,,,,2,137,2020-11-12_11h21.34.485,tareaTDv3,2020.2.5,Win32,60,,,,left,1.0,1.97504,0.0,40.0,40.0,62.0,1.0,25000.0,0.0,75000.0,5.0
,,,,,,,,,,,,,,,,,,,,,,2,137,2020-11-12_11h21.34.485,tareaTDv3,2020.2.5,Win32,60,,,,right,0.0,1.09904,0.0,41.0,41.0,58.0,1.0,5000.0,0.0,106000.0,152.0
,,,,,,,,,,,,,,,,,,,,,,2,137,2020-11-12_11h21.34.485,tareaTDv3,2020.2.5,Win32,60,,,,left,0.0,1.50065,0.0,42.0,42.0,88.0,1.0,25000.0,0.0,125000.0,149.0
,,,,,,,,,,,,,,,,,,,,,,2,137,2020-11-12_11h21.34.485,tareaTDv3,2020.2.5,Win32,60,,,,right,0.0,1.036225,0.0,43.0,43.0,75.0,1.0,25000.0,0.0,35000.0,60.0
,,,,,,,,,,,,,,,,,,,,,,2,137,2020-11-12_11h21.34.485,tareaTDv3,2020.2.5,Win32,60,,,,left,0.0,0.90814,0.0,44.0,44.0,28.0,1.0,10000.0,0.0,109000.0,149.0
,,,,,,,,,,,,,,,,,,,,,,2,137,2020-11-12_11h21.34.485,tareaTDv3,2020.2.5,Win32,60,,,,left,0.0,1.93239,0.0,45.0,45.0,81.0,1.0,25000.0,0.0,55000.0,90.0
,,,,,,,,,,,,,,,,,,,,,,2,137,2020-11-12_11h21.34.485,tareaTDv3,2020.2.5,Win32,60,,,,left,1.0,1.05161,0.0,46.0,46.0,32.0,1.0,5000.0,0.0,54000.0,5.0
,,,,,,,,,,,,,,,,,,,,,,2,137,2020-11-12_11h21.34.485,tareaTDv3,2020.2.5,Win32,60,,,,right,0.0,1.25903,0.0,47.0,47.0,10.0,1.0,10000.0,0.0,21000.0,31.0
,,,,,,,,,,,,,,,,,,,,,,2,137,2020-11-12_11h21.34.485,tareaTDv3,2020.2.5,Win32,60,,,,right,0.0,0.969955,0.0,48.0,48.0,27.0,1.0,10000.0,0.0,61000.0,150.0
,,,,,,,,,,,,,,,,,,,,,,2,137,2020-11-12_11h21.34.485,tareaTDv3,2020.2.5,Win32,60,,,,left,0.0,1.520045,0.0,49.0,49.0,23.0,1.0,10000.0,0.0,110000.0,90.0
,,,,,,,,,,,,,,,,,,,,,,2,137,2020-11-12_11h21.34.485,tareaTDv3,2020.2.5,Win32,60,,,,left,0.0,4.42366,0.0,50.0,50.0,53.0,1.0,5000.0,0.0,104000.0,90.0
,,,,,,,,,,,,,,,,,,,,,,2,137,2020-11-12_11h21.34.485,tareaTDv3,2020.2.5,Win32,60,,,,right,1.0,2.61041,0.0,51.0,51.0,3.0,1.0,10000.0,0.0,109000.0,5.0
,,,,,,,,,,,,,,,,,,,,,,2,137,2020-11-12_11h21.34.485,tareaTDv3,2020.2.5,Win32,60,,,,right,1.0,1.07711,0.0,52.0,52.0,31.0,1.0,5000.0,0.0,35000.0,6.0
,,,,,,,,,,,,,,,,,,,,,,2,137,2020-11-12_11h21.34.485,tareaTDv3,2020.2.5,Win32,60,,,,right,0.0,1.973375,0.0,53.0,53.0,72.0,1.0,25000.0,0.0,75000.0,31.0
,,,,,,,,,,,,,,,,,,,,,,2,137,2020-11-12_11h21.34.485,tareaTDv3,2020.2.5,Win32,60,,,,left,1.0,1.10651,0.0,54.0,54.0,69.0,1.0,25000.0,0.0,150000.0,9.0
,,,,,,,,,,,,,,,,,,,,,,2,137,2020-11-12_11h21.34.485,tareaTDv3,2020.2.5,Win32,60,,,,right,1.0,0.93793,0.0,55.0,55.0,4.0,1.0,10000.0,0.0,150000.0,5.0
,,,,,,,,,,,,,,,,,,,,,,2,137,2020-11-12_11h21.34.485,tareaTDv3,2020.2.5,Win32,60,,,,right,0.0,1.450215,0.0,56.0,56.0,80.0,1.0,25000.0,0.0,35000.0,90.0
,,,,,,,,,,,,,,,,,,,,,,2,137,2020-11-12_11h21.34.485,tareaTDv3,2020.2.5,Win32,60,,,,right,1.0,2.38628,0.0,57.0,57.0,68.0,1.0,25000.0,0.0,125000.0,9.0
,,,,,,,,,,,,,,,,,,,,,,2,137,2020-11-12_11h21.34.485,tareaTDv3,2020.2.5,Win32,60,,,,left,0.0,4.0011,0.0,58.0,58.0,84.0,1.0,25000.0,0.0,150000.0,89.0
,,,,,,,,,,,,,,,,,,,,,,2,137,2020-11-12_11h21.34.485,tareaTDv3,2020.2.5,Win32,60,,,,left,0.0,1.95193,0.0,59.0,59.0,78.0,1.0,25000.0,0.0,125000.0,59.0
,,,,,,,,,,,,,,,,,,,,,,2,137,2020-11-12_11h21.34.485,tareaTDv3,2020.2.5,Win32,60,,,,right,0.0,1.0571,0.0,60.0,60.0,55.0,1.0,5000.0,0.0,14000.0,149.0
,,,,,,,,,,,,,,,,,,,,,,2,137,2020-11-12_11h21.34.485,tareaTDv3,2020.2.5,Win32,60,,,,right,1.0,2.11122,0.0,61.0,61.0,14.0,1.0,10000.0,0.0,150000.0,30.0
,,,,,,,,,,,,,,,,,,,,,,2,137,2020-11-12_11h21.34.485,tareaTDv3,2020.2.5,Win32,60,,,,right,0.0,5.034665,0.0,62.0,62.0,49.0,1.0,5000.0,0.0,149000.0,59.0
,,,,,,,,,,,,,,,,,,,,,,2,137,2020-11-12_11h21.34.485,tareaTDv3,2020.2.5,Win32,60,,,,right,1.0,0.776245,0.0,63.0,63.0,64.0,1.0,25000.0,0.0,150000.0,4.0
,,,,,,,,,,,,,,,,,,,,,,2,137,2020-11-12_11h21.34.485,tareaTDv3,2020.2.5,Win32,60,,,,right,1.0,1.733935,0.0,64.0,64.0,73.0,1.0,25000.0,0.0,125000.0,31.0
,,,,,,,,,,,,,,,,,,,,,,2,137,2020-11-12_11h21.34.485,tareaTDv3,2020.2.5,Win32,60,,,,right,0.0,1.103525,0.0,65.0,65.0,86.0,1.0,25000.0,0.0,55000.0,151.0
,,,,,,,,,,,,,,,,,,,,,,2,137,2020-11-12_11h21.34.485,tareaTDv3,2020.2.5,Win32,60,,,,right,1.0,2.425605,0.0,66.0,66.0,13.0,1.0,10000.0,0.0,111000.0,30.0
,,,,,,,,,,,,,,,,,,,,,,2,137,2020-11-12_11h21.34.485,tareaTDv3,2020.2.5,Win32,60,,,,right,0.0,3.539815,0.0,67.0,67.0,79.0,1.0,25000.0,0.0,150000.0,61.0
,,,,,,,,,,,,,,,,,,,,,,2,137,2020-11-12_11h21.34.485,tareaTDv3,2020.2.5,Win32,60,,,,left,1.0,1.685835,0.0,68.0,68.0,63.0,1.0,25000.0,0.0,125000.0,4.0
,,,,,,,,,,,,,,,,,,,,,,2,137,2020-11-12_11h21.34.485,tareaTDv3,2020.2.5,Win32,60,,,,right,1.0,1.227005,0.0,69.0,69.0,33.0,1.0,5000.0,0.0,104000.0,5.0
,,,,,,,,,,,,,,,,,,,,,,2,137,2020-11-12_11h21.34.485,tareaTDv3,2020.2.5,Win32,60,,,,right,1.0,1.167725,0.0,70.0,70.0,37.0,1.0,5000.0,0.0,56000.0,9.0
,,,,,,,,,,,,,,,,,,,,,,2,137,2020-11-12_11h21.34.485,tareaTDv3,2020.2.5,Win32,60,,,,right,0.0,1.210535,0.0,71.0,71.0,87.0,1.0,25000.0,0.0,75000.0,151.0
,,,,,,,,,,,,,,,,,,,,,,2,137,2020-11-12_11h21.34.485,tareaTDv3,2020.2.5,Win32,60,,,,left,0.0,1.32543,0.0,72.0,72.0,59.0,1.0,5000.0,0.0,151000.0,150.0
,,,,,,,,,,,,,,,,,,,,,,2,137,2020-11-12_11h21.34.485,tareaTDv3,2020.2.5,Win32,60,,,,left,0.0,1.076915,0.0,73.0,73.0,20.0,1.0,10000.0,0.0,20000.0,90.0
,,,,,,,,,,,,,,,,,,,,,,2,137,2020-11-12_11h21.34.485,tareaTDv3,2020.2.5,Win32,60,,,,right,1.0,1.734155,0.0,74.0,74.0,42.0,1.0,5000.0,0.0,56000.0,29.0
,,,,,,,,,,,,,,,,,,,,,,2,137,2020-11-12_11h21.34.485,tareaTDv3,2020.2.5,Win32,60,,,,left,0.0,3.950345,0.0,75.0,75.0,21.0,1.0,10000.0,0.0,40000.0,91.0
,,,,,,,,,,,,,,,,,,,,,,2,137,2020-11-12_11h21.34.485,tareaTDv3,2020.2.5,Win32,60,,,,left,0.0,2.927805,0.0,76.0,76.0,0.0,1.0,10000.0,0.0,20000.0,5.0
,,,,,,,,,,,,,,,,,,,,,,2,137,2020-11-12_11h21.34.485,tareaTDv3,2020.2.5,Win32,60,,,,left,0.0,2.06712,0.0,77.0,77.0,76.0,1.0,25000.0,0.0,55000.0,60.0
,,,,,,,,,,,,,,,,,,,,,,2,137,2020-11-12_11h21.34.485,tareaTDv3,2020.2.5,Win32,60,,,,left,0.0,1.654855,0.0,78.0,78.0,24.0,1.0,10000.0,0.0,149000.0,89.0
,,,,,,,,,,,,,,,,,,,,,,2,137,2020-11-12_11h21.34.485,tareaTDv3,2020.2.5,Win32,60,,,,right,1.0,4.576925,0.0,79.0,79.0,1.0,1.0,10000.0,0.0,39000.0,6.0
,,,,,,,,,,,,,,,,,,,,,,2,137,2020-11-12_11h21.34.485,tareaTDv3,2020.2.5,Win32,60,,,,left,1.0,5.709005,0.0,80.0,80.0,9.0,1.0,10000.0,0.0,151000.0,11.0
,,,,,,,,,,,,,,,,,,,,,,2,137,2020-11-12_11h21.34.485,tareaTDv3,2020.2.5,Win32,60,,,,right,0.0,5.454745,0.0,81.0,81.0,35.0,1.0,5000.0,0.0,15000.0,11.0
,,,,,,,,,,,,,,,,,,,,,,2,137,2020-11-12_11h21.34.485,tareaTDv3,2020.2.5,Win32,60,,,,left,0.0,7.4064,0.0,82.0,82.0,70.0,1.0,25000.0,0.0,35000.0,30.0
,,,,,,,,,,,,,,,,,,,,,,2,137,2020-11-12_11h21.34.485,tareaTDv3,2020.2.5,Win32,60,,,,right,1.0,0.554285,0.0,83.0,83.0,54.0,1.0,5000.0,0.0,150000.0,90.0
,,,,,,,,,,,,,,,,,,,,,,2,137,2020-11-12_11h21.34.485,tareaTDv3,2020.2.5,Win32,60,,,,left,1.0,3.376705,0.0,84.0,84.0,47.0,1.0,5000.0,0.0,56000.0,60.0
,,,,,,,,,,,,,,,,,,,,,,2,137,2020-11-12_11h21.34.485,tareaTDv3,2020.2.5,Win32,60,,,,right,0.0,1.96922,0.0,85.0,85.0,89.0,1.0,25000.0,0.0,150000.0,150.0
,,,,,,,,,,,,,,,,,,,,,,2,137,2020-11-12_11h21.34.485,tareaTDv3,2020.2.5,Win32,60,,,,left,1.0,2.53414,0.0,86.0,86.0,44.0,1.0,5000.0,0.0,150000.0,30.0
,,,,,,,,,,,,,,,,,,,,,,2,137,2020-11-12_11h21.34.485,tareaTDv3,2020.2.5,Win32,60,,,,left,1.0,3.655905,0.0,87.0,87.0,2.0,1.0,10000.0,0.0,61000.0,4.0
,,,,,,,,,,,,,,,,,,,,,,2,137,2020-11-12_11h21.34.485,tareaTDv3,2020.2.5,Win32,60,,,,left,0.0,2.902725,0.0,88.0,88.0,56.0,1.0,5000.0,0.0,35000.0,150.0
,,,,,,,,,,,,,,,,,,,,,,2,137,2020-11-12_11h21.34.485,tareaTDv3,2020.2.5,Win32,60,,,,right,1.0,0.736175,0.0,89.0,89.0,61.0,1.0,25000.0,0.0,55000.0,6.0
