ssAmount,llAmount,llDelay,ss_am,ss_del,ll_am,ll_del,Practice.thisRepN,Practice.thisTrialN,Practice.thisN,Practice.thisIndex,trials.thisRepN,trials.thisTrialN,trials.thisN,trials.thisIndex,intro1.started,intro1.stopped,key1.keys,key1.rt,key1.started,key1.stopped,intro2.started,intro2.stopped,key2.keys,key2.rt,key2.started,key2.stopped,intro2_2.started,intro2_2.stopped,key2_2.keys,key2_2.rt,key2_2.started,key2_2.stopped,Intro2_3.started,Intro2_3.stopped,key2_3.keys,key2_3.rt,key2_3.started,key2_3.stopped,key3.keys,key3.rt,key3.started,key3.stopped,intro3.started,intro3.stopped,ss_am.started,ss_am.stopped,ss_del.started,ss_del.stopped,ll_am.started,ll_am.stopped,ll_del.started,ll_del.stopped,Intro4.started,Intro4.stopped,key4.keys,key4.rt,key4.started,key4.stopped,pregunta.started,pregunta.stopped,ssAm_P.started,ssAm_P.stopped,ssDel_P.started,ssDel_P.stopped,llAm_P.started,llAm_P.stopped,llDel_P.started,llDel_P.stopped,respP.keys,respP.corr,respP.rt,respP.started,respP.stopped,feedbackP.started,feedbackP.stopped,comienzo.started,comienzo.stopped,key5.keys,key5.rt,key5.started,key5.stopped,preguntaT.started,preguntaT.stopped,ssAm_T.started,ssAm_T.stopped,ssDel_T.started,ssDel_T.stopped,llAm_T.started,llAm_T.stopped,llDel_T.started,llDel_T.stopped,respT.keys,respT.corr,respT.rt,respT.started,respT.stopped,textfbT.started,textfbT.stopped,session,participant,date,expName,psychopyVersion,frameRate,Unnamed: 105
,,,,,,,,,,,,,,,19.84177839999029,None,space,9.873734399996463,20.31253419999848,None,,,,,,,,,,,,,,,,,,,,,,,,,,,,,,,,,,,,,,,,,,,,,,,,,,,,,,,,,,,,,,,,,,,,,,,,,,,,,,,1,137,2019_Aug_10_0851,ninosDelConv2,3.1.5,60.6757457786095,
,,,,,,,,,,,,,,,,,,,,,30.211196499993093,None,space,27.367655599999125,30.727870499991692,None,,,,,,,,,,,,,,,,,,,,,,,,,,,,,,,,,,,,,,,,,,,,,,,,,,,,,,,,,,,,,,,,,,,,,,,,,1,137,2019_Aug_10_0851,ninosDelConv2,3.1.5,60.6757457786095,
,,,,,,,,,,,,,,,,,,,,,,,,,,,58.12125769999693,None,space,39.876195800010464,58.637570799997775,None,,,,,,,,,,,,,,,,,,,,,,,,,,,,,,,,,,,,,,,,,,,,,,,,,,,,,,,,,,,,,,,,,,,1,137,2019_Aug_10_0851,ninosDelConv2,3.1.5,60.6757457786095,
,,,,,,,,,,,,,,,,,,,,,,,,,,,,,,,,,98.53165729998727,None,space,4.632931000000099,99.0485733999958,None,,,,,,,,,,,,,,,,,,,,,,,,,,,,,,,,,,,,,,,,,,,,,,,,,,,,,,,,,,,,,1,137,2019_Aug_10_0851,ninosDelConv2,3.1.5,60.6757457786095,
,,,,,,,,,,,,,,,,,,,,,,,,,,,,,,,,,,,,,,,right,6.876271600005566,104.21263559999352,None,,,,,,,,,,,,,,,,,,,,,,,,,,,,,,,,,,,,,,,,,,,,,,,,,,,,,,,,,1,137,2019_Aug_10_0851,ninosDelConv2,3.1.5,60.6757457786095,
,,,,,,,,,,,,,,,,,,,,,,,,,,,,,,,,,,,,,,,,,,,103.71215329998812,None,103.71215329998812,None,103.71215329998812,None,103.71215329998812,None,103.71215329998812,None,111.11073609998856,None,space,2.725468600008753,111.6282591999916,None,,,,,,,,,,,,,,,,,,,,,,,,,,,,,,,,,,,,,,,,,1,137,2019_Aug_10_0851,ninosDelConv2,3.1.5,60.6757457786095,
25.0,35.0,150.0,,,,,0.0,0.0,0.0,1.0,,,,,,,,,,,,,,,,,,,,,,,,,,,,,,,,,,,,,,,,,,,,,,,,,114.6280676999886,None,114.6280676999886,None,114.6280676999886,None,114.6280676999886,None,114.6280676999886,None,left,1.0,6.041159800006426,115.12828479999736,None,121.204579199999,None,,,,,,,,,,,,,,,,,,,,,,,,1,137,2019_Aug_10_0851,ninosDelConv2,3.1.5,60.6757457786095,
10.0,19.0,89.0,,,,,0.0,1.0,1.0,2.0,,,,,,,,,,,,,,,,,,,,,,,,,,,,,,,,,,,,,,,,,,,,,,,,,124.2132891999936,None,124.2132891999936,None,124.2132891999936,None,124.2132891999936,None,124.2132891999936,None,left,0.0,3.1650016000057803,124.70955959999992,None,127.89774389998638,None,,,,,,,,,,,,,,,,,,,,,,,,1,137,2019_Aug_10_0851,ninosDelConv2,3.1.5,60.6757457786095,
10.0,109.0,9.0,,,,,0.0,2.0,2.0,0.0,,,,,,,,,,,,,,,,,,,,,,,,,,,,,,,,,,,,,,,,,,,,,,,,,130.90967749999254,None,130.90967749999254,None,130.90967749999254,None,130.90967749999254,None,130.90967749999254,None,left,1.0,3.946600999988732,131.40775429998757,None,135.38115229998948,None,,,,,,,,,,,,,,,,,,,,,,,,1,137,2019_Aug_10_0851,ninosDelConv2,3.1.5,60.6757457786095,
,,,,,,,,,,,,,,,,,,,,,,,,,,,,,,,,,,,,,,,,,,,,,,,,,,,,,,,,,,,,,,,,,,,,,,,,,,,,138.37236389999453,None,g,47.299512600002345,138.89104899999802,None,,,,,,,,,,,,,,,,,,1,137,2019_Aug_10_0851,ninosDelConv2,3.1.5,60.6757457786095,
,,,5.0,0.0,149.0,59.0,,,,,0.0,0.0,0.0,49.0,,,,,,,,,,,,,,,,,,,,,,,,,,,,,,,,,,,,,,,,,,,,,,,,,,,,,,,,,,,,,,,,,,,,186.30138709998573,None,186.30138709998573,None,186.30138709998573,None,186.30138709998573,None,186.30138709998573,None,right,1.0,4.122643599999719,186.81392149999735,None,190.9740058999887,None,1,137,2019_Aug_10_0851,ninosDelConv2,3.1.5,60.6757457786095,
,,,5.0,0.0,15.0,11.0,,,,,0.0,1.0,1.0,35.0,,,,,,,,,,,,,,,,,,,,,,,,,,,,,,,,,,,,,,,,,,,,,,,,,,,,,,,,,,,,,,,,,,,,193.98004689998925,None,193.98004689998925,None,193.98004689998925,None,193.98004689998925,None,193.98004689998925,None,right,1.0,1.617680499999551,194.48005999998716,None,196.1293544999935,None,1,137,2019_Aug_10_0851,ninosDelConv2,3.1.5,60.6757457786095,
,,,25.0,0.0,35.0,5.0,,,,,0.0,2.0,2.0,60.0,,,,,,,,,,,,,,,,,,,,,,,,,,,,,,,,,,,,,,,,,,,,,,,,,,,,,,,,,,,,,,,,,,,,199.15000509998936,None,199.15000509998936,None,199.15000509998936,None,199.15000509998936,None,199.15000509998936,None,right,1.0,1.4642523999937112,199.64561879998652,None,201.1281372999947,None,1,137,2019_Aug_10_0851,ninosDelConv2,3.1.5,60.6757457786095,
,,,25.0,0.0,150.0,61.0,,,,,0.0,3.0,3.0,79.0,,,,,,,,,,,,,,,,,,,,,,,,,,,,,,,,,,,,,,,,,,,,,,,,,,,,,,,,,,,,,,,,,,,,204.14122629999477,None,204.14122629999477,None,204.14122629999477,None,204.14122629999477,None,204.14122629999477,None,right,1.0,1.49710999999661,204.6444882999931,None,206.16151459999676,None,1,137,2019_Aug_10_0851,ninosDelConv2,3.1.5,60.6757457786095,
,,,25.0,0.0,35.0,30.0,,,,,0.0,4.0,4.0,70.0,,,,,,,,,,,,,,,,,,,,,,,,,,,,,,,,,,,,,,,,,,,,,,,,,,,,,,,,,,,,,,,,,,,,209.1758599999885,None,209.1758599999885,None,209.1758599999885,None,209.1758599999885,None,209.1758599999885,None,right,1.0,2.001119499997003,209.67640779999783,None,211.6944953999919,None,1,137,2019_Aug_10_0851,ninosDelConv2,3.1.5,60.6757457786095,
,,,10.0,0.0,20.0,90.0,,,,,0.0,5.0,5.0,20.0,,,,,,,,,,,,,,,,,,,,,,,,,,,,,,,,,,,,,,,,,,,,,,,,,,,,,,,,,,,,,,,,,,,,214.7194954999868,None,214.7194954999868,None,214.7194954999868,None,214.7194954999868,None,214.7194954999868,None,left,1.0,3.602368000007118,215.2095268999983,None,218.84237659999053,None,1,137,2019_Aug_10_0851,ninosDelConv2,3.1.5,60.6757457786095,
,,,10.0,0.0,111.0,10.0,,,,,0.0,6.0,6.0,8.0,,,,,,,,,,,,,,,,,,,,,,,,,,,,,,,,,,,,,,,,,,,,,,,,,,,,,,,,,,,,,,,,,,,,221.8582677999948,None,221.8582677999948,None,221.8582677999948,None,221.8582677999948,None,221.8582677999948,None,left,1.0,3.122216700008721,222.35747919999997,None,225.50666739999724,None,1,137,2019_Aug_10_0851,ninosDelConv2,3.1.5,60.6757457786095,
,,,25.0,0.0,75.0,31.0,,,,,0.0,7.0,7.0,72.0,,,,,,,,,,,,,,,,,,,,,,,,,,,,,,,,,,,,,,,,,,,,,,,,,,,,,,,,,,,,,,,,,,,,228.52828169999705,None,228.52828169999705,None,228.52828169999705,None,228.52828169999705,None,228.52828169999705,None,left,1.0,2.46652709999762,229.0235397999932,None,231.5064582999912,None,1,137,2019_Aug_10_0851,ninosDelConv2,3.1.5,60.6757457786095,
,,,10.0,0.0,39.0,59.0,,,,,0.0,8.0,8.0,16.0,,,,,,,,,,,,,,,,,,,,,,,,,,,,,,,,,,,,,,,,,,,,,,,,,,,,,,,,,,,,,,,,,,,,234.51321809999357,None,234.51321809999357,None,234.51321809999357,None,234.51321809999357,None,234.51321809999357,None,right,1.0,1.081961499992758,235.0223718999914,None,236.12115319998705,None,1,137,2019_Aug_10_0851,ninosDelConv2,3.1.5,60.6757457786095,
,,,5.0,0.0,55.0,151.0,,,,,0.0,9.0,9.0,57.0,,,,,,,,,,,,,,,,,,,,,,,,,,,,,,,,,,,,,,,,,,,,,,,,,,,,,,,,,,,,,,,,,,,,239.14527129998896,None,239.14527129998896,None,239.14527129998896,None,239.14527129998896,None,239.14527129998896,None,right,1.0,0.7684178999916185,239.6373481999908,None,240.4208709999948,None,1,137,2019_Aug_10_0851,ninosDelConv2,3.1.5,60.6757457786095,
,,,5.0,0.0,151.0,4.0,,,,,0.0,10.0,10.0,34.0,,,,,,,,,,,,,,,,,,,,,,,,,,,,,,,,,,,,,,,,,,,,,,,,,,,,,,,,,,,,,,,,,,,,243.4306007999985,None,243.4306007999985,None,243.4306007999985,None,243.4306007999985,None,243.4306007999985,None,right,1.0,0.9548219999996944,243.93735229999584,None,244.91964199999347,None,1,137,2019_Aug_10_0851,ninosDelConv2,3.1.5,60.6757457786095,
,,,25.0,0.0,125.0,31.0,,,,,0.0,11.0,11.0,73.0,,,,,,,,,,,,,,,,,,,,,,,,,,,,,,,,,,,,,,,,,,,,,,,,,,,,,,,,,,,,,,,,,,,,247.94395209998763,None,247.94395209998763,None,247.94395209998763,None,247.94395209998763,None,247.94395209998763,None,right,1.0,1.154600699999719,248.4358387999964,None,249.6190553999913,None,1,137,2019_Aug_10_0851,ninosDelConv2,3.1.5,60.6757457786095,
,,,10.0,0.0,151.0,11.0,,,,,0.0,12.0,12.0,9.0,,,,,,,,,,,,,,,,,,,,,,,,,,,,,,,,,,,,,,,,,,,,,,,,,,,,,,,,,,,,,,,,,,,,252.6399616999988,None,252.6399616999988,None,252.6399616999988,None,252.6399616999988,None,252.6399616999988,None,right,1.0,1.249916700005997,253.1348219999927,None,254.40165099999285,None,1,137,2019_Aug_10_0851,ninosDelConv2,3.1.5,60.6757457786095,
,,,10.0,0.0,59.0,9.0,,,,,0.0,13.0,13.0,7.0,,,,,,,,,,,,,,,,,,,,,,,,,,,,,,,,,,,,,,,,,,,,,,,,,,,,,,,,,,,,,,,,,,,,257.41813129998627,None,257.41813129998627,None,257.41813129998627,None,257.41813129998627,None,257.41813129998627,None,right,1.0,1.9190664000052493,257.9179206999979,None,259.8679734999896,None,1,137,2019_Aug_10_0851,ninosDelConv2,3.1.5,60.6757457786095,
,,,25.0,0.0,75.0,59.0,,,,,0.0,14.0,14.0,77.0,,,,,,,,,,,,,,,,,,,,,,,,,,,,,,,,,,,,,,,,,,,,,,,,,,,,,,,,,,,,,,,,,,,,262.8908895999921,None,262.8908895999921,None,262.8908895999921,None,262.8908895999921,None,262.8908895999921,None,left,1.0,2.475055999995675,263.38359499999206,None,265.8839905999921,None,1,137,2019_Aug_10_0851,ninosDelConv2,3.1.5,60.6757457786095,
,,,10.0,0.0,39.0,150.0,,,,,0.0,15.0,15.0,26.0,,,,,,,,,,,,,,,,,,,,,,,,,,,,,,,,,,,,,,,,,,,,,,,,,,,,,,,,,,,,,,,,,,,,268.90477089998603,None,268.90477089998603,None,268.90477089998603,None,268.90477089998603,None,268.90477089998603,None,right,0.0,2.474714200012386,269.3992118999886,None,271.9091931999865,None,1,137,2019_Aug_10_0851,ninosDelConv2,3.1.5,60.6757457786095,
,,,10.0,0.0,149.0,89.0,,,,,0.0,16.0,16.0,24.0,,,,,,,,,,,,,,,,,,,,,,,,,,,,,,,,,,,,,,,,,,,,,,,,,,,,,,,,,,,,,,,,,,,,274.9145964999916,None,274.9145964999916,None,274.9145964999916,None,274.9145964999916,None,274.9145964999916,None,left,1.0,1.1518635999964315,275.4146605999995,None,276.60722009999154,None,1,137,2019_Aug_10_0851,ninosDelConv2,3.1.5,60.6757457786095,
,,,25.0,0.0,125.0,89.0,,,,,0.0,17.0,17.0,83.0,,,,,,,,,,,,,,,,,,,,,,,,,,,,,,,,,,,,,,,,,,,,,,,,,,,,,,,,,,,,,,,,,,,,279.61506559999543,None,279.61506559999543,None,279.61506559999543,None,279.61506559999543,None,279.61506559999543,None,right,1.0,1.1675664999929722,280.1138620999991,None,281.29596909999964,None,1,137,2019_Aug_10_0851,ninosDelConv2,3.1.5,60.6757457786095,
,,,5.0,0.0,14.0,31.0,,,,,0.0,18.0,18.0,40.0,,,,,,,,,,,,,,,,,,,,,,,,,,,,,,,,,,,,,,,,,,,,,,,,,,,,,,,,,,,,,,,,,,,,284.31873789998644,None,284.31873789998644,None,284.31873789998644,None,284.31873789998644,None,284.31873789998644,None,right,1.0,4.803183399999398,284.8122546999948,None,289.6433764999965,None,1,137,2019_Aug_10_0851,ninosDelConv2,3.1.5,60.6757457786095,
,,,25.0,0.0,35.0,90.0,,,,,0.0,19.0,19.0,80.0,,,,,,,,,,,,,,,,,,,,,,,,,,,,,,,,,,,,,,,,,,,,,,,,,,,,,,,,,,,,,,,,,,,,292.6670361999859,None,292.6670361999859,None,292.6670361999859,None,292.6670361999859,None,292.6670361999859,None,left,0.0,2.229596199991647,293.16057739999087,None,295.4223020999925,None,1,137,2019_Aug_10_0851,ninosDelConv2,3.1.5,60.6757457786095,
,,,5.0,0.0,104.0,10.0,,,,,0.0,20.0,20.0,38.0,,,,,,,,,,,,,,,,,,,,,,,,,,,,,,,,,,,,,,,,,,,,,,,,,,,,,,,,,,,,,,,,,,,,298.43267789999663,None,298.43267789999663,None,298.43267789999663,None,298.43267789999663,None,298.43267789999663,None,left,1.0,1.449612199998228,298.9269373999996,None,300.4025615999999,None,1,137,2019_Aug_10_0851,ninosDelConv2,3.1.5,60.6757457786095,
,,,5.0,0.0,56.0,29.0,,,,,0.0,21.0,21.0,42.0,,,,,,,,,,,,,,,,,,,,,,,,,,,,,,,,,,,,,,,,,,,,,,,,,,,,,,,,,,,,,,,,,,,,303.4088691999932,None,303.4088691999932,None,303.4088691999932,None,303.4088691999932,None,303.4088691999932,None,left,1.0,1.829631700005848,303.90934019999986,None,305.7597206999926,None,1,137,2019_Aug_10_0851,ninosDelConv2,3.1.5,60.6757457786095,
,,,5.0,0.0,106.0,152.0,,,,,0.0,22.0,22.0,58.0,,,,,,,,,,,,,,,,,,,,,,,,,,,,,,,,,,,,,,,,,,,,,,,,,,,,,,,,,,,,,,,,,,,,308.77698179999425,None,308.77698179999425,None,308.77698179999425,None,308.77698179999425,None,308.77698179999425,None,right,1.0,2.228727699999581,309.27452469999844,None,311.5237183999998,None,1,137,2019_Aug_10_0851,ninosDelConv2,3.1.5,60.6757457786095,
,,,5.0,0.0,104.0,5.0,,,,,0.0,23.0,23.0,33.0,,,,,,,,,,,,,,,,,,,,,,,,,,,,,,,,,,,,,,,,,,,,,,,,,,,,,,,,,,,,,,,,,,,,314.54328229998646,None,314.54328229998646,None,314.54328229998646,None,314.54328229998646,None,314.54328229998646,None,right,1.0,1.291899400006514,315.04054879999603,None,316.35620019999624,None,1,137,2019_Aug_10_0851,ninosDelConv2,3.1.5,60.6757457786095,
,,,5.0,0.0,35.0,31.0,,,,,0.0,24.0,24.0,41.0,,,,,,,,,,,,,,,,,,,,,,,,,,,,,,,,,,,,,,,,,,,,,,,,,,,,,,,,,,,,,,,,,,,,319.37323789999937,None,319.37323789999937,None,319.37323789999937,None,319.37323789999937,None,319.37323789999937,None,right,1.0,2.343732399996952,319.87220489999163,None,322.2385512999899,None,1,137,2019_Aug_10_0851,ninosDelConv2,3.1.5,60.6757457786095,
,,,10.0,0.0,40.0,91.0,,,,,0.0,25.0,25.0,21.0,,,,,,,,,,,,,,,,,,,,,,,,,,,,,,,,,,,,,,,,,,,,,,,,,,,,,,,,,,,,,,,,,,,,325.2599626999872,None,325.2599626999872,None,325.2599626999872,None,325.2599626999872,None,325.2599626999872,None,right,0.0,3.0926261999993585,325.7548124999885,None,328.88284519998706,None,1,137,2019_Aug_10_0851,ninosDelConv2,3.1.5,60.6757457786095,
,,,25.0,0.0,75.0,151.0,,,,,0.0,26.0,26.0,87.0,,,,,,,,,,,,,,,,,,,,,,,,,,,,,,,,,,,,,,,,,,,,,,,,,,,,,,,,,,,,,,,,,,,,331.8936502999859,None,331.8936502999859,None,331.8936502999859,None,331.8936502999859,None,331.8936502999859,None,left,0.0,1.6477947999956086,332.38648229998944,None,334.0531076999905,None,1,137,2019_Aug_10_0851,ninosDelConv2,3.1.5,60.6757457786095,
,,,10.0,0.0,39.0,29.0,,,,,0.0,27.0,27.0,11.0,,,,,,,,,,,,,,,,,,,,,,,,,,,,,,,,,,,,,,,,,,,,,,,,,,,,,,,,,,,,,,,,,,,,337.0737614999962,None,337.0737614999962,None,337.0737614999962,None,337.0737614999962,None,337.0737614999962,None,right,1.0,1.8765959000011208,337.5695498999994,None,339.4784141999989,None,1,137,2019_Aug_10_0851,ninosDelConv2,3.1.5,60.6757457786095,
,,,25.0,0.0,55.0,151.0,,,,,0.0,28.0,28.0,86.0,,,,,,,,,,,,,,,,,,,,,,,,,,,,,,,,,,,,,,,,,,,,,,,,,,,,,,,,,,,,,,,,,,,,342.4853708999872,None,342.4853708999872,None,342.4853708999872,None,342.4853708999872,None,342.4853708999872,None,left,0.0,2.4663299999956507,342.98460049999994,None,345.4787267999927,None,1,137,2019_Aug_10_0851,ninosDelConv2,3.1.5,60.6757457786095,
,,,5.0,0.0,104.0,90.0,,,,,0.0,29.0,29.0,53.0,,,,,,,,,,,,,,,,,,,,,,,,,,,,,,,,,,,,,,,,,,,,,,,,,,,,,,,,,,,,,,,,,,,,348.4931297999865,None,348.4931297999865,None,348.4931297999865,None,348.4931297999865,None,348.4931297999865,None,left,1.0,2.237484500001301,348.98338669999794,None,351.2549389999913,None,1,137,2019_Aug_10_0851,ninosDelConv2,3.1.5,60.6757457786095,
,,,10.0,0.0,109.0,5.0,,,,,0.0,30.0,30.0,3.0,,,,,,,,,,,,,,,,,,,,,,,,,,,,,,,,,,,,,,,,,,,,,,,,,,,,,,,,,,,,,,,,,,,,354.2692012999905,None,354.2692012999905,None,354.2692012999905,None,354.2692012999905,None,354.2692012999905,None,left,1.0,2.122607199999038,354.7664124999865,None,356.91615289999754,None,1,137,2019_Aug_10_0851,ninosDelConv2,3.1.5,60.6757457786095,
,,,25.0,0.0,75.0,5.0,,,,,0.0,31.0,31.0,62.0,,,,,,,,,,,,,,,,,,,,,,,,,,,,,,,,,,,,,,,,,,,,,,,,,,,,,,,,,,,,,,,,,,,,359.9323626999976,None,359.9323626999976,None,359.9323626999976,None,359.9323626999976,None,359.9323626999976,None,left,1.0,2.652744899998652,360.4319628999947,None,363.11378649999097,None,1,137,2019_Aug_10_0851,ninosDelConv2,3.1.5,60.6757457786095,
,,,25.0,0.0,125.0,9.0,,,,,0.0,32.0,32.0,68.0,,,,,,,,,,,,,,,,,,,,,,,,,,,,,,,,,,,,,,,,,,,,,,,,,,,,,,,,,,,,,,,,,,,,366.1264923999988,None,366.1264923999988,None,366.1264923999988,None,366.1264923999988,None,366.1264923999988,None,left,1.0,1.386783199995989,366.6306862999918,None,368.0474703999935,None,1,137,2019_Aug_10_0851,ninosDelConv2,3.1.5,60.6757457786095,
,,,10.0,0.0,20.0,59.0,,,,,0.0,33.0,33.0,15.0,,,,,,,,,,,,,,,,,,,,,,,,,,,,,,,,,,,,,,,,,,,,,,,,,,,,,,,,,,,,,,,,,,,,371.0693964999955,None,371.0693964999955,None,371.0693964999955,None,371.0693964999955,None,371.0693964999955,None,left,0.0,4.176456300003338,371.5632495999889,None,375.7738579999859,None,1,137,2019_Aug_10_0851,ninosDelConv2,3.1.5,60.6757457786095,
,,,25.0,0.0,150.0,89.0,,,,,0.0,34.0,34.0,84.0,,,,,,,,,,,,,,,,,,,,,,,,,,,,,,,,,,,,,,,,,,,,,,,,,,,,,,,,,,,,,,,,,,,,378.7796688999952,None,378.7796688999952,None,378.7796688999952,None,378.7796688999952,None,378.7796688999952,None,right,1.0,2.57003529999929,379.2770407999924,None,381.8864438999881,None,1,137,2019_Aug_10_0851,ninosDelConv2,3.1.5,60.6757457786095,
,,,10.0,0.0,109.0,149.0,,,,,0.0,35.0,35.0,28.0,,,,,,,,,,,,,,,,,,,,,,,,,,,,,,,,,,,,,,,,,,,,,,,,,,,,,,,,,,,,,,,,,,,,384.8986842999875,None,384.8986842999875,None,384.8986842999875,None,384.8986842999875,None,384.8986842999875,None,left,0.0,1.6586462999985088,385.3933515999961,None,387.0758089999872,None,1,137,2019_Aug_10_0851,ninosDelConv2,3.1.5,60.6757457786095,
,,,10.0,0.0,60.0,29.0,,,,,0.0,36.0,36.0,12.0,,,,,,,,,,,,,,,,,,,,,,,,,,,,,,,,,,,,,,,,,,,,,,,,,,,,,,,,,,,,,,,,,,,,390.0798073999904,None,390.0798073999904,None,390.0798073999904,None,390.0798073999904,None,390.0798073999904,None,right,1.0,2.410513200011337,390.5929310999927,None,393.034428199986,None,1,137,2019_Aug_10_0851,ninosDelConv2,3.1.5,60.6757457786095,
,,,5.0,0.0,56.0,89.0,,,,,0.0,37.0,37.0,52.0,,,,,,,,,,,,,,,,,,,,,,,,,,,,,,,,,,,,,,,,,,,,,,,,,,,,,,,,,,,,,,,,,,,,396.0461769999965,None,396.0461769999965,None,396.0461769999965,None,396.0461769999965,None,396.0461769999965,None,right,1.0,1.7176313000090886,396.5417177999916,None,398.2742080999888,None,1,137,2019_Aug_10_0851,ninosDelConv2,3.1.5,60.6757457786095,
,,,5.0,0.0,36.0,9.0,,,,,0.0,38.0,38.0,36.0,,,,,,,,,,,,,,,,,,,,,,,,,,,,,,,,,,,,,,,,,,,,,,,,,,,,,,,,,,,,,,,,,,,,401.2917768999905,None,401.2917768999905,None,401.2917768999905,None,401.2917768999905,None,401.2917768999905,None,right,1.0,1.0388674999994691,401.7906551999913,None,402.8570701999997,None,1,137,2019_Aug_10_0851,ninosDelConv2,3.1.5,60.6757457786095,
,,,10.0,0.0,149.0,61.0,,,,,0.0,39.0,39.0,19.0,,,,,,,,,,,,,,,,,,,,,,,,,,,,,,,,,,,,,,,,,,,,,,,,,,,,,,,,,,,,,,,,,,,,405.8800485999964,None,405.8800485999964,None,405.8800485999964,None,405.8800485999964,None,405.8800485999964,None,right,1.0,1.4493868999998083,406.3730643999879,None,407.8399049,None,1,137,2019_Aug_10_0851,ninosDelConv2,3.1.5,60.6757457786095,
,,,10.0,0.0,40.0,10.0,,,,,0.0,40.0,40.0,6.0,,,,,,,,,,,,,,,,,,,,,,,,,,,,,,,,,,,,,,,,,,,,,,,,,,,,,,,,,,,,,,,,,,,,410.85467979998793,None,410.85467979998793,None,410.85467979998793,None,410.85467979998793,None,410.85467979998793,None,left,1.0,1.065536299996893,411.35553779998736,None,412.4388820999884,None,1,137,2019_Aug_10_0851,ninosDelConv2,3.1.5,60.6757457786095,
,,,5.0,0.0,35.0,6.0,,,,,0.0,41.0,41.0,31.0,,,,,,,,,,,,,,,,,,,,,,,,,,,,,,,,,,,,,,,,,,,,,,,,,,,,,,,,,,,,,,,,,,,,415.4623409999913,None,415.4623409999913,None,415.4623409999913,None,415.4623409999913,None,415.4623409999913,None,left,1.0,1.6131282999995165,415.9540025999886,None,417.58710579999024,None,1,137,2019_Aug_10_0851,ninosDelConv2,3.1.5,60.6757457786095,
,,,25.0,0.0,55.0,30.0,,,,,0.0,42.0,42.0,71.0,,,,,,,,,,,,,,,,,,,,,,,,,,,,,,,,,,,,,,,,,,,,,,,,,,,,,,,,,,,,,,,,,,,,420.6106891999953,None,420.6106891999953,None,420.6106891999953,None,420.6106891999953,None,420.6106891999953,None,left,1.0,3.973555599994143,421.1035043999873,None,425.1029361999972,None,1,137,2019_Aug_10_0851,ninosDelConv2,3.1.5,60.6757457786095,
,,,25.0,0.0,150.0,29.0,,,,,0.0,43.0,43.0,74.0,,,,,,,,,,,,,,,,,,,,,,,,,,,,,,,,,,,,,,,,,,,,,,,,,,,,,,,,,,,,,,,,,,,,428.1199887999974,None,428.1199887999974,None,428.1199887999974,None,428.1199887999974,None,428.1199887999974,None,left,1.0,0.9156748000095832,428.6189650999877,None,429.5505586999934,None,1,137,2019_Aug_10_0851,ninosDelConv2,3.1.5,60.6757457786095,
,,,25.0,0.0,55.0,90.0,,,,,0.0,44.0,44.0,81.0,,,,,,,,,,,,,,,,,,,,,,,,,,,,,,,,,,,,,,,,,,,,,,,,,,,,,,,,,,,,,,,,,,,,432.555213899992,None,432.555213899992,None,432.555213899992,None,432.555213899992,None,432.555213899992,None,left,0.0,2.258833300002152,433.0673145999899,None,435.3609593000001,None,1,137,2019_Aug_10_0851,ninosDelConv2,3.1.5,60.6757457786095,
,,,5.0,0.0,149.0,10.0,,,,,0.0,45.0,45.0,39.0,,,,,,,,,,,,,,,,,,,,,,,,,,,,,,,,,,,,,,,,,,,,,,,,,,,,,,,,,,,,,,,,,,,,438.3708957999916,None,438.3708957999916,None,438.3708957999916,None,438.3708957999916,None,438.3708957999916,None,left,1.0,2.6861400000052527,438.86702129998594,None,441.59283409999625,None,1,137,2019_Aug_10_0851,ninosDelConv2,3.1.5,60.6757457786095,
,,,5.0,0.0,54.0,5.0,,,,,0.0,46.0,46.0,32.0,,,,,,,,,,,,,,,,,,,,,,,,,,,,,,,,,,,,,,,,,,,,,,,,,,,,,,,,,,,,,,,,,,,,444.5820818999928,None,444.5820818999928,None,444.5820818999928,None,444.5820818999928,None,444.5820818999928,None,left,1.0,0.8259290999994846,445.0977680999931,None,445.9489019999892,None,1,137,2019_Aug_10_0851,ninosDelConv2,3.1.5,60.6757457786095,
,,,25.0,0.0,55.0,6.0,,,,,0.0,47.0,47.0,61.0,,,,,,,,,,,,,,,,,,,,,,,,,,,,,,,,,,,,,,,,,,,,,,,,,,,,,,,,,,,,,,,,,,,,448.95572639998863,None,448.95572639998863,None,448.95572639998863,None,448.95572639998863,None,448.95572639998863,None,left,1.0,2.157530199998291,449.4648632999888,None,451.648120599988,None,1,137,2019_Aug_10_0851,ninosDelConv2,3.1.5,60.6757457786095,
,,,25.0,0.0,35.0,11.0,,,,,0.0,48.0,48.0,65.0,,,,,,,,,,,,,,,,,,,,,,,,,,,,,,,,,,,,,,,,,,,,,,,,,,,,,,,,,,,,,,,,,,,,454.6511824999907,None,454.6511824999907,None,454.6511824999907,None,454.6511824999907,None,454.6511824999907,None,left,1.0,3.071288099992671,455.163157499992,None,458.2627996999945,None,1,137,2019_Aug_10_0851,ninosDelConv2,3.1.5,60.6757457786095,
,,,5.0,0.0,106.0,29.0,,,,,0.0,49.0,49.0,43.0,,,,,,,,,,,,,,,,,,,,,,,,,,,,,,,,,,,,,,,,,,,,,,,,,,,,,,,,,,,,,,,,,,,,461.2859380999871,None,461.2859380999871,None,461.2859380999871,None,461.2859380999871,None,461.2859380999871,None,right,1.0,1.1835292000032496,461.7787103999872,None,462.97992529999465,None,1,137,2019_Aug_10_0851,ninosDelConv2,3.1.5,60.6757457786095,
,,,25.0,0.0,125.0,149.0,,,,,0.0,50.0,50.0,88.0,,,,,,,,,,,,,,,,,,,,,,,,,,,,,,,,,,,,,,,,,,,,,,,,,,,,,,,,,,,,,,,,,,,,466.0003730999888,None,466.0003730999888,None,466.0003730999888,None,466.0003730999888,None,466.0003730999888,None,right,0.0,7.7511302000057185,466.4942263999983,None,474.2825451999961,None,1,137,2019_Aug_10_0851,ninosDelConv2,3.1.5,60.6757457786095,
,,,10.0,0.0,110.0,90.0,,,,,0.0,51.0,51.0,23.0,,,,,,,,,,,,,,,,,,,,,,,,,,,,,,,,,,,,,,,,,,,,,,,,,,,,,,,,,,,,,,,,,,,,477.2990811999916,None,477.2990811999916,None,477.2990811999916,None,477.2990811999916,None,477.2990811999916,None,left,1.0,1.4422857000026852,477.7929892999964,None,479.2646495999943,None,1,137,2019_Aug_10_0851,ninosDelConv2,3.1.5,60.6757457786095,
,,,25.0,0.0,75.0,90.0,,,,,0.0,52.0,52.0,82.0,,,,,,,,,,,,,,,,,,,,,,,,,,,,,,,,,,,,,,,,,,,,,,,,,,,,,,,,,,,,,,,,,,,,482.2748146999948,None,482.2748146999948,None,482.2748146999948,None,482.2748146999948,None,482.2748146999948,None,right,1.0,3.519501600007061,482.7754564999923,None,486.3238777999941,None,1,137,2019_Aug_10_0851,ninosDelConv2,3.1.5,60.6757457786095,
,,,10.0,0.0,111.0,30.0,,,,,0.0,53.0,53.0,13.0,,,,,,,,,,,,,,,,,,,,,,,,,,,,,,,,,,,,,,,,,,,,,,,,,,,,,,,,,,,,,,,,,,,,489.3252429999993,None,489.3252429999993,None,489.3252429999993,None,489.3252429999993,None,489.3252429999993,None,left,1.0,3.49060720000125,489.8398877999862,None,493.3559798999922,None,1,137,2019_Aug_10_0851,ninosDelConv2,3.1.5,60.6757457786095,
,,,10.0,0.0,10.01,150.0,,,,,0.0,54.0,54.0,25.0,,,,,,,,,,,,,,,,,,,,,,,,,,,,,,,,,,,,,,,,,,,,,,,,,,,,,,,,,,,,,,,,,,,,496.3740836999932,None,496.3740836999932,None,496.3740836999932,None,496.3740836999932,None,496.3740836999932,None,right,0.0,3.559993199989549,496.8725981999887,None,500.465108599994,None,1,137,2019_Aug_10_0851,ninosDelConv2,3.1.5,60.6757457786095,
,,,5.0,0.0,150.0,90.0,,,,,0.0,55.0,55.0,54.0,,,,,,,,,,,,,,,,,,,,,,,,,,,,,,,,,,,,,,,,,,,,,,,,,,,,,,,,,,,,,,,,,,,,503.4788133999973,None,503.4788133999973,None,503.4788133999973,None,503.4788133999973,None,503.4788133999973,None,left,1.0,1.1547022000013385,503.9710469999991,None,505.15866399998777,None,1,137,2019_Aug_10_0851,ninosDelConv2,3.1.5,60.6757457786095,
,,,5.0,0.0,14.0,149.0,,,,,0.0,56.0,56.0,55.0,,,,,,,,,,,,,,,,,,,,,,,,,,,,,,,,,,,,,,,,,,,,,,,,,,,,,,,,,,,,,,,,,,,,508.16852859999926,None,508.16852859999926,None,508.16852859999926,None,508.16852859999926,None,508.16852859999926,None,right,0.0,2.076841300004162,508.6696726999944,None,510.777474699993,None,1,137,2019_Aug_10_0851,ninosDelConv2,3.1.5,60.6757457786095,
,,,5.0,0.0,56.0,60.0,,,,,0.0,57.0,57.0,47.0,,,,,,,,,,,,,,,,,,,,,,,,,,,,,,,,,,,,,,,,,,,,,,,,,,,,,,,,,,,,,,,,,,,,513.7873333999887,None,513.7873333999887,None,513.7873333999887,None,513.7873333999887,None,513.7873333999887,None,left,1.0,2.434315399994375,514.2860430999863,None,516.7526075999922,None,1,137,2019_Aug_10_0851,ninosDelConv2,3.1.5,60.6757457786095,
,,,5.0,0.0,56.0,9.0,,,,,0.0,58.0,58.0,37.0,,,,,,,,,,,,,,,,,,,,,,,,,,,,,,,,,,,,,,,,,,,,,,,,,,,,,,,,,,,,,,,,,,,,519.7614588999859,None,519.7614588999859,None,519.7614588999859,None,519.7614588999859,None,519.7614588999859,None,left,1.0,1.1824386999942362,520.2678288999887,None,521.4676828999945,None,1,137,2019_Aug_10_0851,ninosDelConv2,3.1.5,60.6757457786095,
,,,10.0,0.0,110.0,60.0,,,,,0.0,59.0,59.0,18.0,,,,,,,,,,,,,,,,,,,,,,,,,,,,,,,,,,,,,,,,,,,,,,,,,,,,,,,,,,,,,,,,,,,,524.4906527999992,None,524.4906527999992,None,524.4906527999992,None,524.4906527999992,None,524.4906527999992,None,right,1.0,1.8884201999899235,524.9833611999929,None,526.8997653999977,None,1,137,2019_Aug_10_0851,ninosDelConv2,3.1.5,60.6757457786095,
,,,5.0,0.0,36.0,61.0,,,,,0.0,60.0,60.0,46.0,,,,,,,,,,,,,,,,,,,,,,,,,,,,,,,,,,,,,,,,,,,,,,,,,,,,,,,,,,,,,,,,,,,,529.9204107999976,None,529.9204107999976,None,529.9204107999976,None,529.9204107999976,None,529.9204107999976,None,left,0.0,6.431925599987153,530.415431699992,None,536.874256199997,None,1,137,2019_Aug_10_0851,ninosDelConv2,3.1.5,60.6757457786095,
,,,10.0,0.0,151.0,151.0,,,,,0.0,61.0,61.0,29.0,,,,,,,,,,,,,,,,,,,,,,,,,,,,,,,,,,,,,,,,,,,,,,,,,,,,,,,,,,,,,,,,,,,,539.8722738999932,None,539.8722738999932,None,539.8722738999932,None,539.8722738999932,None,539.8722738999932,None,right,1.0,3.834472200003802,540.3804052999913,None,544.2485470999964,None,1,137,2019_Aug_10_0851,ninosDelConv2,3.1.5,60.6757457786095,
,,,10.0,0.0,61.0,150.0,,,,,0.0,62.0,62.0,27.0,,,,,,,,,,,,,,,,,,,,,,,,,,,,,,,,,,,,,,,,,,,,,,,,,,,,,,,,,,,,,,,,,,,,547.2613229999988,None,547.2613229999988,None,547.2613229999988,None,547.2613229999988,None,547.2613229999988,None,left,0.0,7.12571070001286,547.762461499995,None,554.9214692999958,None,1,137,2019_Aug_10_0851,ninosDelConv2,3.1.5,60.6757457786095,
,,,5.0,0.0,35.0,89.0,,,,,0.0,63.0,63.0,51.0,,,,,,,,,,,,,,,,,,,,,,,,,,,,,,,,,,,,,,,,,,,,,,,,,,,,,,,,,,,,,,,,,,,,557.9356654999865,None,557.9356654999865,None,557.9356654999865,None,557.9356654999865,None,557.9356654999865,None,right,1.0,1.1373387000057846,558.4275579999958,None,559.6012512999878,None,1,137,2019_Aug_10_0851,ninosDelConv2,3.1.5,60.6757457786095,
,,,5.0,0.0,15.0,91.0,,,,,0.0,64.0,64.0,50.0,,,,,,,,,,,,,,,,,,,,,,,,,,,,,,,,,,,,,,,,,,,,,,,,,,,,,,,,,,,,,,,,,,,,562.6096393999906,None,562.6096393999906,None,562.6096393999906,None,562.6096393999906,None,562.6096393999906,None,right,0.0,1.561968100009835,563.1100668999861,None,564.692530699991,None,1,137,2019_Aug_10_0851,ninosDelConv2,3.1.5,60.6757457786095,
,,,10.0,0.0,20.0,5.0,,,,,0.0,65.0,65.0,0.0,,,,,,,,,,,,,,,,,,,,,,,,,,,,,,,,,,,,,,,,,,,,,,,,,,,,,,,,,,,,,,,,,,,,567.7153885999869,None,567.7153885999869,None,567.7153885999869,None,567.7153885999869,None,567.7153885999869,None,left,1.0,1.2826644000015222,568.2087350999936,None,569.518258199998,None,1,137,2019_Aug_10_0851,ninosDelConv2,3.1.5,60.6757457786095,
,,,10.0,0.0,150.0,30.0,,,,,0.0,66.0,66.0,14.0,,,,,,,,,,,,,,,,,,,,,,,,,,,,,,,,,,,,,,,,,,,,,,,,,,,,,,,,,,,,,,,,,,,,572.5252137999923,None,572.5252137999923,None,572.5252137999923,None,572.5252137999923,None,572.5252137999923,None,left,1.0,1.9021584000001892,573.0233119999903,None,574.9420762999944,None,1,137,2019_Aug_10_0851,ninosDelConv2,3.1.5,60.6757457786095,
,,,10.0,0.0,19.0,11.0,,,,,0.0,67.0,67.0,5.0,,,,,,,,,,,,,,,,,,,,,,,,,,,,,,,,,,,,,,,,,,,,,,,,,,,,,,,,,,,,,,,,,,,,577.9575104999967,None,577.9575104999967,None,577.9575104999967,None,577.9575104999967,None,577.9575104999967,None,left,0.0,2.291708299992024,578.4563892999868,None,580.7850958999916,None,1,137,2019_Aug_10_0851,ninosDelConv2,3.1.5,60.6757457786095,
,,,10.0,0.0,61.0,4.0,,,,,0.0,68.0,68.0,2.0,,,,,,,,,,,,,,,,,,,,,,,,,,,,,,,,,,,,,,,,,,,,,,,,,,,,,,,,,,,,,,,,,,,,583.7887984999979,None,583.7887984999979,None,583.7887984999979,None,583.7887984999979,None,583.7887984999979,None,left,1.0,0.9055779000045732,584.288725499995,None,585.2332368999923,None,1,137,2019_Aug_10_0851,ninosDelConv2,3.1.5,60.6757457786095,
,,,5.0,0.0,150.0,30.0,,,,,0.0,69.0,69.0,44.0,,,,,,,,,,,,,,,,,,,,,,,,,,,,,,,,,,,,,,,,,,,,,,,,,,,,,,,,,,,,,,,,,,,,588.2413381999941,None,588.2413381999941,None,588.2413381999941,None,588.2413381999941,None,588.2413381999941,None,left,1.0,0.9011143000097944,588.7386499999993,None,589.6550620999915,None,1,137,2019_Aug_10_0851,ninosDelConv2,3.1.5,60.6757457786095,
,,,5.0,0.0,15.0,61.0,,,,,0.0,70.0,70.0,45.0,,,,,,,,,,,,,,,,,,,,,,,,,,,,,,,,,,,,,,,,,,,,,,,,,,,,,,,,,,,,,,,,,,,,592.6616757999873,None,592.6616757999873,None,592.6616757999873,None,592.6616757999873,None,592.6616757999873,None,left,0.0,1.1931867999956012,593.1710306999885,None,594.3972195999959,None,1,137,2019_Aug_10_0851,ninosDelConv2,3.1.5,60.6757457786095,
,,,25.0,0.0,35.0,60.0,,,,,0.0,71.0,71.0,75.0,,,,,,,,,,,,,,,,,,,,,,,,,,,,,,,,,,,,,,,,,,,,,,,,,,,,,,,,,,,,,,,,,,,,597.4096064999903,None,597.4096064999903,None,597.4096064999903,None,597.4096064999903,None,597.4096064999903,None,right,0.0,1.4951803000003565,597.9035770999908,None,599.4191261999949,None,1,137,2019_Aug_10_0851,ninosDelConv2,3.1.5,60.6757457786095,
,,,25.0,0.0,55.0,60.0,,,,,0.0,72.0,72.0,76.0,,,,,,,,,,,,,,,,,,,,,,,,,,,,,,,,,,,,,,,,,,,,,,,,,,,,,,,,,,,,,,,,,,,,602.4304539999866,None,602.4304539999866,None,602.4304539999866,None,602.4304539999866,None,602.4304539999866,None,left,1.0,3.532791699995869,602.9352329999965,None,606.4949457999901,None,1,137,2019_Aug_10_0851,ninosDelConv2,3.1.5,60.6757457786095,
,,,10.0,0.0,39.0,6.0,,,,,0.0,73.0,73.0,1.0,,,,,,,,,,,,,,,,,,,,,,,,,,,,,,,,,,,,,,,,,,,,,,,,,,,,,,,,,,,,,,,,,,,,609.5056137999927,None,609.5056137999927,None,609.5056137999927,None,609.5056137999927,None,609.5056137999927,None,left,1.0,1.5288387000036892,610.0003215999895,None,611.550290299987,None,1,137,2019_Aug_10_0851,ninosDelConv2,3.1.5,60.6757457786095,
,,,25.0,0.0,55.0,11.0,,,,,0.0,74.0,74.0,66.0,,,,,,,,,,,,,,,,,,,,,,,,,,,,,,,,,,,,,,,,,,,,,,,,,,,,,,,,,,,,,,,,,,,,614.5747705999966,None,614.5747705999966,None,614.5747705999966,None,614.5747705999966,None,614.5747705999966,None,left,1.0,0.9608035999990534,615.0668938999879,None,616.0511678999901,None,1,137,2019_Aug_10_0851,ninosDelConv2,3.1.5,60.6757457786095,
,,,5.0,0.0,35.0,150.0,,,,,0.0,75.0,75.0,56.0,,,,,,,,,,,,,,,,,,,,,,,,,,,,,,,,,,,,,,,,,,,,,,,,,,,,,,,,,,,,,,,,,,,,619.0567414999969,None,619.0567414999969,None,619.0567414999969,None,619.0567414999969,None,619.0567414999969,None,left,0.0,3.580012599995825,619.5658994999976,None,623.1754719999881,None,1,137,2019_Aug_10_0851,ninosDelConv2,3.1.5,60.6757457786095,
,,,25.0,0.0,75.0,10.0,,,,,0.0,76.0,76.0,67.0,,,,,,,,,,,,,,,,,,,,,,,,,,,,,,,,,,,,,,,,,,,,,,,,,,,,,,,,,,,,,,,,,,,,626.1884172999999,None,626.1884172999999,None,626.1884172999999,None,626.1884172999999,None,626.1884172999999,None,left,1.0,1.167192200009595,626.680720999997,None,627.8736215999961,None,1,137,2019_Aug_10_0851,ninosDelConv2,3.1.5,60.6757457786095,
,,,5.0,0.0,105.0,60.0,,,,,0.0,77.0,77.0,48.0,,,,,,,,,,,,,,,,,,,,,,,,,,,,,,,,,,,,,,,,,,,,,,,,,,,,,,,,,,,,,,,,,,,,630.8851265999983,None,630.8851265999983,None,630.8851265999983,None,630.8851265999983,None,630.8851265999983,None,right,1.0,3.932694200004335,631.3806076999899,None,635.3291836999997,None,1,137,2019_Aug_10_0851,ninosDelConv2,3.1.5,60.6757457786095,
,,,25.0,0.0,125.0,59.0,,,,,0.0,78.0,78.0,78.0,,,,,,,,,,,,,,,,,,,,,,,,,,,,,,,,,,,,,,,,,,,,,,,,,,,,,,,,,,,,,,,,,,,,638.3555716999981,None,638.3555716999981,None,638.3555716999981,None,638.3555716999981,None,638.3555716999981,None,left,1.0,0.9593301999993856,638.8456698999944,None,639.8283171999938,None,1,137,2019_Aug_10_0851,ninosDelConv2,3.1.5,60.6757457786095,
,,,10.0,0.0,60.0,60.0,,,,,0.0,79.0,79.0,17.0,,,,,,,,,,,,,,,,,,,,,,,,,,,,,,,,,,,,,,,,,,,,,,,,,,,,,,,,,,,,,,,,,,,,642.8392584999965,None,642.8392584999965,None,642.8392584999965,None,642.8392584999965,None,642.8392584999965,None,right,0.0,8.401815000004717,643.3444281999982,None,651.7884146999859,None,1,137,2019_Aug_10_0851,ninosDelConv2,3.1.5,60.6757457786095,
,,,10.0,0.0,61.0,89.0,,,,,0.0,80.0,80.0,22.0,,,,,,,,,,,,,,,,,,,,,,,,,,,,,,,,,,,,,,,,,,,,,,,,,,,,,,,,,,,,,,,,,,,,654.7961854999885,None,654.7961854999885,None,654.7961854999885,None,654.7961854999885,None,654.7961854999885,None,left,1.0,5.18132489999698,655.2926942999911,None,660.5021593999991,None,1,137,2019_Aug_10_0851,ninosDelConv2,3.1.5,60.6757457786095,
,,,5.0,0.0,151.0,150.0,,,,,0.0,81.0,81.0,59.0,,,,,,,,,,,,,,,,,,,,,,,,,,,,,,,,,,,,,,,,,,,,,,,,,,,,,,,,,,,,,,,,,,,,663.5155475999927,None,663.5155475999927,None,663.5155475999927,None,663.5155475999927,None,663.5155475999927,None,left,1.0,2.046563600000809,664.0071757999976,None,666.0733369999944,None,1,137,2019_Aug_10_0851,ninosDelConv2,3.1.5,60.6757457786095,
,,,25.0,0.0,35.0,150.0,,,,,0.0,82.0,82.0,85.0,,,,,,,,,,,,,,,,,,,,,,,,,,,,,,,,,,,,,,,,,,,,,,,,,,,,,,,,,,,,,,,,,,,,669.0725361999939,None,669.0725361999939,None,669.0725361999939,None,669.0725361999939,None,669.0725361999939,None,right,0.0,1.0392705999984173,669.5885717999918,None,670.6648139999888,None,1,137,2019_Aug_10_0851,ninosDelConv2,3.1.5,60.6757457786095,
,,,10.0,0.0,150.0,5.0,,,,,0.0,83.0,83.0,4.0,,,,,,,,,,,,,,,,,,,,,,,,,,,,,,,,,,,,,,,,,,,,,,,,,,,,,,,,,,,,,,,,,,,,673.6789107999939,None,673.6789107999939,None,673.6789107999939,None,673.6789107999939,None,673.6789107999939,None,right,1.0,1.2371090999949956,674.1716236999928,None,675.4435694999993,None,1,137,2019_Aug_10_0851,ninosDelConv2,3.1.5,60.6757457786095,
,,,25.0,0.0,150.0,9.0,,,,,0.0,84.0,84.0,69.0,,,,,,,,,,,,,,,,,,,,,,,,,,,,,,,,,,,,,,,,,,,,,,,,,,,,,,,,,,,,,,,,,,,,678.4384300999955,None,678.4384300999955,None,678.4384300999955,None,678.4384300999955,None,678.4384300999955,None,right,1.0,1.0198881000105755,678.9548610999918,None,680.0041893999878,None,1,137,2019_Aug_10_0851,ninosDelConv2,3.1.5,60.6757457786095,
,,,5.0,0.0,16.0,4.0,,,,,0.0,85.0,85.0,30.0,,,,,,,,,,,,,,,,,,,,,,,,,,,,,,,,,,,,,,,,,,,,,,,,,,,,,,,,,,,,,,,,,,,,683.0263027999899,None,683.0263027999899,None,683.0263027999899,None,683.0263027999899,None,683.0263027999899,None,right,1.0,1.283950900004129,683.5203774999973,None,684.8210533999954,None,1,137,2019_Aug_10_0851,ninosDelConv2,3.1.5,60.6757457786095,
,,,25.0,0.0,150.0,4.0,,,,,0.0,86.0,86.0,64.0,,,,,,,,,,,,,,,,,,,,,,,,,,,,,,,,,,,,,,,,,,,,,,,,,,,,,,,,,,,,,,,,,,,,687.8179758999904,None,687.8179758999904,None,687.8179758999904,None,687.8179758999904,None,687.8179758999904,None,right,1.0,1.4885607999895,688.3356440999924,None,689.8531187999906,None,1,137,2019_Aug_10_0851,ninosDelConv2,3.1.5,60.6757457786095,
,,,25.0,0.0,150.0,150.0,,,,,0.0,87.0,87.0,89.0,,,,,,,,,,,,,,,,,,,,,,,,,,,,,,,,,,,,,,,,,,,,,,,,,,,,,,,,,,,,,,,,,,,,692.8629820999922,None,692.8629820999922,None,692.8629820999922,None,692.8629820999922,None,692.8629820999922,None,left,0.0,1.1556492999952752,693.3676209999976,None,694.5615211999975,None,1,137,2019_Aug_10_0851,ninosDelConv2,3.1.5,60.6757457786095,
,,,10.0,0.0,21.0,31.0,,,,,0.0,88.0,88.0,10.0,,,,,,,,,,,,,,,,,,,,,,,,,,,,,,,,,,,,,,,,,,,,,,,,,,,,,,,,,,,,,,,,,,,,697.5761319999874,None,697.5761319999874,None,697.5761319999874,None,697.5761319999874,None,697.5761319999874,None,left,0.0,3.1324224000127288,698.0677524999919,None,701.2179371999955,None,1,137,2019_Aug_10_0851,ninosDelConv2,3.1.5,60.6757457786095,
,,,25.0,0.0,125.0,4.0,,,,,0.0,89.0,89.0,63.0,,,,,,,,,,,,,,,,,,,,,,,,,,,,,,,,,,,,,,,,,,,,,,,,,,,,,,,,,,,,,,,,,,,,704.2324350999988,None,704.2324350999988,None,704.2324350999988,None,704.2324350999988,None,704.2324350999988,None,left,1.0,1.4021858000050995,704.7329377999995,None,706.17292859999,None,1,137,2019_Aug_10_0851,ninosDelConv2,3.1.5,60.6757457786095,
