ssAmount,llAmount,llDelay,ss_am,ss_del,ll_am,ll_del,Practice.thisRepN,Practice.thisTrialN,Practice.thisN,Practice.thisIndex,trials.thisRepN,trials.thisTrialN,trials.thisN,trials.thisIndex,key1.keys,key1.rt,key2.keys,key2.rt,key2_2.keys,key2_2.rt,key2_3.keys,key2_3.rt,key3.keys,key3.rt,key4.keys,key4.rt,respP.keys,respP.corr,respP.rt,key5.keys,key5.rt,respT.keys,respT.corr,respT.rt,session,psychopyVersion,frameRate,expName,date,participant,
,,,,,,,,,,,,,,,space,16.3972954481,,,,,,,,,,,,,,,,,,,001,3.0.3,59.72237401988184,ninosDelConv2,2019_Aug_10_0841,144,
,,,,,,,,,,,,,,,,,space,27.5116832098,,,,,,,,,,,,,,,,,001,3.0.3,59.72237401988184,ninosDelConv2,2019_Aug_10_0841,144,
,,,,,,,,,,,,,,,,,,,space,21.9795513627,,,,,,,,,,,,,,,001,3.0.3,59.72237401988184,ninosDelConv2,2019_Aug_10_0841,144,
,,,,,,,,,,,,,,,,,,,,,space,13.7310910892,,,,,,,,,,,,,001,3.0.3,59.72237401988184,ninosDelConv2,2019_Aug_10_0841,144,
,,,,,,,,,,,,,,,,,,,,,,,space,19.1965848169,,,,,,,,,,,001,3.0.3,59.72237401988184,ninosDelConv2,2019_Aug_10_0841,144,
,,,,,,,,,,,,,,,,,,,,,,,,,space,2.16647192508,,,,,,,,,001,3.0.3,59.72237401988184,ninosDelConv2,2019_Aug_10_0841,144,
25,35,150,,,,,0,0,0,1,,,,,,,,,,,,,,,,,None,0,,,,,,,001,3.0.3,59.72237401988184,ninosDelConv2,2019_Aug_10_0841,144,
10,19,89,,,,,0,1,1,2,,,,,,,,,,,,,,,,,right,0,9.51509140174,,,,,,001,3.0.3,59.72237401988184,ninosDelConv2,2019_Aug_10_0841,144,
10,109,9,,,,,0,2,2,0,,,,,,,,,,,,,,,,,right,1,4.23287306464,,,,,,001,3.0.3,59.72237401988184,ninosDelConv2,2019_Aug_10_0841,144,
,,,,,,,,,,,,,,,,,,,,,,,,,,,,,,g,77.7355243089,,,,001,3.0.3,59.72237401988184,ninosDelConv2,2019_Aug_10_0841,144,
,,,10,0,21.0,31,,,,,0,0,0,10,,,,,,,,,,,,,,,,,,right,0,9.51548105626,001,3.0.3,59.72237401988184,ninosDelConv2,2019_Aug_10_0841,144,
,,,5,0,106.0,152,,,,,0,1,1,58,,,,,,,,,,,,,,,,,,left,0,18.3634206937,001,3.0.3,59.72237401988184,ninosDelConv2,2019_Aug_10_0841,144,
,,,10,0,60.0,60,,,,,0,2,2,17,,,,,,,,,,,,,,,,,,left,0,9.79790861419,001,3.0.3,59.72237401988184,ninosDelConv2,2019_Aug_10_0841,144,
,,,5,0,56.0,29,,,,,0,3,3,42,,,,,,,,,,,,,,,,,,left,0,7.482376872,001,3.0.3,59.72237401988184,ninosDelConv2,2019_Aug_10_0841,144,
,,,10,0,61.0,4,,,,,0,4,4,2,,,,,,,,,,,,,,,,,,right,1,4.84966223945,001,3.0.3,59.72237401988184,ninosDelConv2,2019_Aug_10_0841,144,
,,,25,0,150.0,61,,,,,0,5,5,79,,,,,,,,,,,,,,,,,,right,0,9.03221075477,001,3.0.3,59.72237401988184,ninosDelConv2,2019_Aug_10_0841,144,
,,,10,0,150.0,5,,,,,0,6,6,4,,,,,,,,,,,,,,,,,,left,1,4.79934694314,001,3.0.3,59.72237401988184,ninosDelConv2,2019_Aug_10_0841,144,
,,,5,0,14.0,31,,,,,0,7,7,40,,,,,,,,,,,,,,,,,,left,0,15.4306957287,001,3.0.3,59.72237401988184,ninosDelConv2,2019_Aug_10_0841,144,
,,,25,0,75.0,5,,,,,0,8,8,62,,,,,,,,,,,,,,,,,,left,0,12.7981327426,001,3.0.3,59.72237401988184,ninosDelConv2,2019_Aug_10_0841,144,
,,,25,0,150.0,4,,,,,0,9,9,64,,,,,,,,,,,,,,,,,,left,1,8.9653778081,001,3.0.3,59.72237401988184,ninosDelConv2,2019_Aug_10_0841,144,
,,,25,0,150.0,89,,,,,0,10,10,84,,,,,,,,,,,,,,,,,,left,0,5.7990780918,001,3.0.3,59.72237401988184,ninosDelConv2,2019_Aug_10_0841,144,
,,,10,0,39.0,6,,,,,0,11,11,1,,,,,,,,,,,,,,,,,,right,0,7.46571014536,001,3.0.3,59.72237401988184,ninosDelConv2,2019_Aug_10_0841,144,
,,,10,0,61.0,89,,,,,0,12,12,22,,,,,,,,,,,,,,,,,,right,0,3.03366656163,001,3.0.3,59.72237401988184,ninosDelConv2,2019_Aug_10_0841,144,
,,,5,0,56.0,9,,,,,0,13,13,37,,,,,,,,,,,,,,,,,,right,1,8.49909294802,001,3.0.3,59.72237401988184,ninosDelConv2,2019_Aug_10_0841,144,
,,,10,0,149.0,89,,,,,0,14,14,24,,,,,,,,,,,,,,,,,,right,0,13.3142933811,001,3.0.3,59.72237401988184,ninosDelConv2,2019_Aug_10_0841,144,
,,,25,0,35.0,5,,,,,0,15,15,60,,,,,,,,,,,,,,,,,,left,0,3.89947530295,001,3.0.3,59.72237401988184,ninosDelConv2,2019_Aug_10_0841,144,
,,,5,0,35.0,31,,,,,0,16,16,41,,,,,,,,,,,,,,,,,,right,0,7.21562853896,001,3.0.3,59.72237401988184,ninosDelConv2,2019_Aug_10_0841,144,
,,,5,0,36.0,9,,,,,0,17,17,36,,,,,,,,,,,,,,,,,,right,1,10.7985953931,001,3.0.3,59.72237401988184,ninosDelConv2,2019_Aug_10_0841,144,
,,,10,0,20.0,90,,,,,0,18,18,20,,,,,,,,,,,,,,,,,,left,0,4.58280235623,001,3.0.3,59.72237401988184,ninosDelConv2,2019_Aug_10_0841,144,
,,,25,0,125.0,31,,,,,0,19,19,73,,,,,,,,,,,,,,,,,,right,0,5.64999205783,001,3.0.3,59.72237401988184,ninosDelConv2,2019_Aug_10_0841,144,
,,,25,0,125.0,4,,,,,0,20,20,63,,,,,,,,,,,,,,,,,,left,1,7.81541325226,001,3.0.3,59.72237401988184,ninosDelConv2,2019_Aug_10_0841,144,
,,,25,0,75.0,90,,,,,0,21,21,82,,,,,,,,,,,,,,,,,,right,0,2.56653864956,001,3.0.3,59.72237401988184,ninosDelConv2,2019_Aug_10_0841,144,
,,,10,0,59.0,9,,,,,0,22,22,7,,,,,,,,,,,,,,,,,,right,0,11.5985890188,001,3.0.3,59.72237401988184,ninosDelConv2,2019_Aug_10_0841,144,
,,,5,0,16.0,4,,,,,0,23,23,30,,,,,,,,,,,,,,,,,,left,0,11.5147557231,001,3.0.3,59.72237401988184,ninosDelConv2,2019_Aug_10_0841,144,
,,,5,0,151.0,4,,,,,0,24,24,34,,,,,,,,,,,,,,,,,,right,1,6.61573227547,001,3.0.3,59.72237401988184,ninosDelConv2,2019_Aug_10_0841,144,
,,,25,0,75.0,31,,,,,0,25,25,72,,,,,,,,,,,,,,,,,,left,0,2.24984462655,001,3.0.3,59.72237401988184,ninosDelConv2,2019_Aug_10_0841,144,
,,,5,0,56.0,60,,,,,0,26,26,47,,,,,,,,,,,,,,,,,,right,0,8.31536981452,001,3.0.3,59.72237401988184,ninosDelConv2,2019_Aug_10_0841,144,
,,,25,0,150.0,29,,,,,0,27,27,74,,,,,,,,,,,,,,,,,,left,0,7.41551153979,001,3.0.3,59.72237401988184,ninosDelConv2,2019_Aug_10_0841,144,
,,,5,0,14.0,149,,,,,0,28,28,55,,,,,,,,,,,,,,,,,,left,0,3.03306305978,001,3.0.3,59.72237401988184,ninosDelConv2,2019_Aug_10_0841,144,
,,,5,0,149.0,59,,,,,0,29,29,49,,,,,,,,,,,,,,,,,,right,0,13.7144449248,001,3.0.3,59.72237401988184,ninosDelConv2,2019_Aug_10_0841,144,
,,,10,0,60.0,29,,,,,0,30,30,12,,,,,,,,,,,,,,,,,,right,0,7.88213413471,001,3.0.3,59.72237401988184,ninosDelConv2,2019_Aug_10_0841,144,
,,,5,0,106.0,29,,,,,0,31,31,43,,,,,,,,,,,,,,,,,,right,1,12.314467132,001,3.0.3,59.72237401988184,ninosDelConv2,2019_Aug_10_0841,144,
,,,10,0,40.0,91,,,,,0,32,32,21,,,,,,,,,,,,,,,,,,left,0,8.49867861881,001,3.0.3,59.72237401988184,ninosDelConv2,2019_Aug_10_0841,144,
,,,25,0,125.0,59,,,,,0,33,33,78,,,,,,,,,,,,,,,,,,right,0,6.28245120451,001,3.0.3,59.72237401988184,ninosDelConv2,2019_Aug_10_0841,144,
,,,10,0,150.0,30,,,,,0,34,34,14,,,,,,,,,,,,,,,,,,left,0,7.38162650432,001,3.0.3,59.72237401988184,ninosDelConv2,2019_Aug_10_0841,144,
,,,10,0,39.0,29,,,,,0,35,35,11,,,,,,,,,,,,,,,,,,left,0,2.05011430037,001,3.0.3,59.72237401988184,ninosDelConv2,2019_Aug_10_0841,144,
,,,25,0,125.0,89,,,,,0,36,36,83,,,,,,,,,,,,,,,,,,right,0,1.84992646428,001,3.0.3,59.72237401988184,ninosDelConv2,2019_Aug_10_0841,144,
,,,10,0,111.0,10,,,,,0,37,37,8,,,,,,,,,,,,,,,,,,left,1,6.48279274338,001,3.0.3,59.72237401988184,ninosDelConv2,2019_Aug_10_0841,144,
,,,10,0,111.0,30,,,,,0,38,38,13,,,,,,,,,,,,,,,,,,left,0,6.34908521148,001,3.0.3,59.72237401988184,ninosDelConv2,2019_Aug_10_0841,144,
,,,10,0,151.0,11,,,,,0,39,39,9,,,,,,,,,,,,,,,,,,right,1,5.34864877786,001,3.0.3,59.72237401988184,ninosDelConv2,2019_Aug_10_0841,144,
,,,5,0,54.0,5,,,,,0,40,40,32,,,,,,,,,,,,,,,,,,left,1,3.13318216657,001,3.0.3,59.72237401988184,ninosDelConv2,2019_Aug_10_0841,144,
,,,5,0,15.0,11,,,,,0,41,41,35,,,,,,,,,,,,,,,,,,right,0,3.63287810239,001,3.0.3,59.72237401988184,ninosDelConv2,2019_Aug_10_0841,144,
,,,25,0,75.0,59,,,,,0,42,42,77,,,,,,,,,,,,,,,,,,right,0,5.88256799806,001,3.0.3,59.72237401988184,ninosDelConv2,2019_Aug_10_0841,144,
,,,10,0,19.0,11,,,,,0,43,43,5,,,,,,,,,,,,,,,,,,right,0,4.18283227429,001,3.0.3,59.72237401988184,ninosDelConv2,2019_Aug_10_0841,144,
,,,10,0,151.0,151,,,,,0,44,44,29,,,,,,,,,,,,,,,,,,right,0,5.34920550061,001,3.0.3,59.72237401988184,ninosDelConv2,2019_Aug_10_0841,144,
,,,10,0,61.0,150,,,,,0,45,45,27,,,,,,,,,,,,,,,,,,right,0,4.68283355943,001,3.0.3,59.72237401988184,ninosDelConv2,2019_Aug_10_0841,144,
,,,10,0,109.0,5,,,,,0,46,46,3,,,,,,,,,,,,,,,,,,right,1,3.04952313587,001,3.0.3,59.72237401988184,ninosDelConv2,2019_Aug_10_0841,144,
,,,10,0,20.0,5,,,,,0,47,47,0,,,,,,,,,,,,,,,,,,left,0,4.61623502233,001,3.0.3,59.72237401988184,ninosDelConv2,2019_Aug_10_0841,144,
,,,10,0,110.0,60,,,,,0,48,48,18,,,,,,,,,,,,,,,,,,right,0,8.3319974729,001,3.0.3,59.72237401988184,ninosDelConv2,2019_Aug_10_0841,144,
,,,10,0,20.0,59,,,,,0,49,49,15,,,,,,,,,,,,,,,,,,right,0,2.29987050927,001,3.0.3,59.72237401988184,ninosDelConv2,2019_Aug_10_0841,144,
,,,25,0,150.0,150,,,,,0,50,50,89,,,,,,,,,,,,,,,,,,right,0,4.59967933181,001,3.0.3,59.72237401988184,ninosDelConv2,2019_Aug_10_0841,144,
,,,5,0,150.0,30,,,,,0,51,51,44,,,,,,,,,,,,,,,,,,right,1,11.1482162511,001,3.0.3,59.72237401988184,ninosDelConv2,2019_Aug_10_0841,144,
,,,5,0,151.0,150,,,,,0,52,52,59,,,,,,,,,,,,,,,,,,right,0,4.96598799268,001,3.0.3,59.72237401988184,ninosDelConv2,2019_Aug_10_0841,144,
,,,10,0,109.0,149,,,,,0,53,53,28,,,,,,,,,,,,,,,,,,left,0,5.38269985344,001,3.0.3,59.72237401988184,ninosDelConv2,2019_Aug_10_0841,144,
,,,25,0,35.0,30,,,,,0,54,54,70,,,,,,,,,,,,,,,,,,left,0,7.06569996705,001,3.0.3,59.72237401988184,ninosDelConv2,2019_Aug_10_0841,144,
,,,5,0,104.0,10,,,,,0,55,55,38,,,,,,,,,,,,,,,,,,right,1,8.21546301289,001,3.0.3,59.72237401988184,ninosDelConv2,2019_Aug_10_0841,144,
,,,5,0,55.0,151,,,,,0,56,56,57,,,,,,,,,,,,,,,,,,right,0,11.4814690489,001,3.0.3,59.72237401988184,ninosDelConv2,2019_Aug_10_0841,144,
,,,25,0,125.0,9,,,,,0,57,57,68,,,,,,,,,,,,,,,,,,right,0,10.414981548,001,3.0.3,59.72237401988184,ninosDelConv2,2019_Aug_10_0841,144,
,,,10,0,39.0,150,,,,,0,58,58,26,,,,,,,,,,,,,,,,,,left,0,5.69922320984,001,3.0.3,59.72237401988184,ninosDelConv2,2019_Aug_10_0841,144,
,,,25,0,35.0,150,,,,,0,59,59,85,,,,,,,,,,,,,,,,,,left,0,4.53295228069,001,3.0.3,59.72237401988184,ninosDelConv2,2019_Aug_10_0841,144,
,,,5,0,150.0,90,,,,,0,60,60,54,,,,,,,,,,,,,,,,,,left,0,3.53296667426,001,3.0.3,59.72237401988184,ninosDelConv2,2019_Aug_10_0841,144,
,,,5,0,35.0,150,,,,,0,61,61,56,,,,,,,,,,,,,,,,,,right,0,5.46587978387,001,3.0.3,59.72237401988184,ninosDelConv2,2019_Aug_10_0841,144,
,,,25,0,150.0,9,,,,,0,62,62,69,,,,,,,,,,,,,,,,,,right,0,10.5816138585,001,3.0.3,59.72237401988184,ninosDelConv2,2019_Aug_10_0841,144,
,,,25,0,55.0,30,,,,,0,63,63,71,,,,,,,,,,,,,,,,,,right,0,2.84971158883,001,3.0.3,59.72237401988184,ninosDelConv2,2019_Aug_10_0841,144,
,,,5,0,104.0,90,,,,,0,64,64,53,,,,,,,,,,,,,,,,,,left,0,3.53297644132,001,3.0.3,59.72237401988184,ninosDelConv2,2019_Aug_10_0841,144,
,,,5,0,15.0,91,,,,,0,65,65,50,,,,,,,,,,,,,,,,,,right,0,1.51657393952,001,3.0.3,59.72237401988184,ninosDelConv2,2019_Aug_10_0841,144,
,,,25,0,55.0,6,,,,,0,66,66,61,,,,,,,,,,,,,,,,,,left,0,4.24931514877,001,3.0.3,59.72237401988184,ninosDelConv2,2019_Aug_10_0841,144,
,,,25,0,55.0,151,,,,,0,67,67,86,,,,,,,,,,,,,,,,,,left,0,3.33296287024,001,3.0.3,59.72237401988184,ninosDelConv2,2019_Aug_10_0841,144,
,,,5,0,35.0,89,,,,,0,68,68,51,,,,,,,,,,,,,,,,,,right,0,4.28307629672,001,3.0.3,59.72237401988184,ninosDelConv2,2019_Aug_10_0841,144,
,,,5,0,105.0,60,,,,,0,69,69,48,,,,,,,,,,,,,,,,,,right,0,7.93221347927,001,3.0.3,59.72237401988184,ninosDelConv2,2019_Aug_10_0841,144,
,,,10,0,40.0,10,,,,,0,70,70,6,,,,,,,,,,,,,,,,,,left,0,15.0807047503,001,3.0.3,59.72237401988184,ninosDelConv2,2019_Aug_10_0841,144,
,,,25,0,55.0,90,,,,,0,71,71,81,,,,,,,,,,,,,,,,,,left,0,4.83271021167,001,3.0.3,59.72237401988184,ninosDelConv2,2019_Aug_10_0841,144,
,,,25,0,35.0,11,,,,,0,72,72,65,,,,,,,,,,,,,,,,,,left,0,4.04949434872,001,3.0.3,59.72237401988184,ninosDelConv2,2019_Aug_10_0841,144,
,,,5,0,56.0,89,,,,,0,73,73,52,,,,,,,,,,,,,,,,,,left,0,8.11538040408,001,3.0.3,59.72237401988184,ninosDelConv2,2019_Aug_10_0841,144,
,,,25,0,35.0,90,,,,,0,74,74,80,,,,,,,,,,,,,,,,,,right,0,5.76585516058,001,3.0.3,59.72237401988184,ninosDelConv2,2019_Aug_10_0841,144,
,,,25,0,55.0,11,,,,,0,75,75,66,,,,,,,,,,,,,,,,,,right,0,2.35023875335,001,3.0.3,59.72237401988184,ninosDelConv2,2019_Aug_10_0841,144,
,,,5,0,35.0,6,,,,,0,76,76,31,,,,,,,,,,,,,,,,,,left,1,8.13232677723,001,3.0.3,59.72237401988184,ninosDelConv2,2019_Aug_10_0841,144,
,,,25,0,35.0,60,,,,,0,77,77,75,,,,,,,,,,,,,,,,,,left,0,1.61663290175,001,3.0.3,59.72237401988184,ninosDelConv2,2019_Aug_10_0841,144,
,,,10,0,10.01,150,,,,,0,78,78,25,,,,,,,,,,,,,,,,,,left,0,2.79971603541,001,3.0.3,59.72237401988184,ninosDelConv2,2019_Aug_10_0841,144,
,,,5,0,36.0,61,,,,,0,79,79,46,,,,,,,,,,,,,,,,,,right,0,3.86631251629,001,3.0.3,59.72237401988184,ninosDelConv2,2019_Aug_10_0841,144,
,,,5,0,104.0,5,,,,,0,80,80,33,,,,,,,,,,,,,,,,,,left,1,8.49891097217,001,3.0.3,59.72237401988184,ninosDelConv2,2019_Aug_10_0841,144,
,,,25,0,125.0,149,,,,,0,81,81,88,,,,,,,,,,,,,,,,,,right,0,3.66629843115,001,3.0.3,59.72237401988184,ninosDelConv2,2019_Aug_10_0841,144,
,,,25,0,55.0,60,,,,,0,82,82,76,,,,,,,,,,,,,,,,,,left,0,1.31666626399,001,3.0.3,59.72237401988184,ninosDelConv2,2019_Aug_10_0841,144,
,,,10,0,149.0,61,,,,,0,83,83,19,,,,,,,,,,,,,,,,,,left,0,3.69943191661,001,3.0.3,59.72237401988184,ninosDelConv2,2019_Aug_10_0841,144,
,,,5,0,149.0,10,,,,,0,84,84,39,,,,,,,,,,,,,,,,,,left,1,5.59926808693,001,3.0.3,59.72237401988184,ninosDelConv2,2019_Aug_10_0841,144,
,,,10,0,110.0,90,,,,,0,85,85,23,,,,,,,,,,,,,,,,,,right,0,1.01672841337,001,3.0.3,59.72237401988184,ninosDelConv2,2019_Aug_10_0841,144,
,,,25,0,75.0,10,,,,,0,86,86,67,,,,,,,,,,,,,,,,,,right,0,2.1997791615,001,3.0.3,59.72237401988184,ninosDelConv2,2019_Aug_10_0841,144,
,,,25,0,75.0,151,,,,,0,87,87,87,,,,,,,,,,,,,,,,,,right,0,1.83333016332,001,3.0.3,59.72237401988184,ninosDelConv2,2019_Aug_10_0841,144,
,,,10,0,39.0,59,,,,,0,88,88,16,,,,,,,,,,,,,,,,,,left,0,1.13334512235,001,3.0.3,59.72237401988184,ninosDelConv2,2019_Aug_10_0841,144,
,,,5,0,15.0,61,,,,,0,89,89,45,,,,,,,,,,,,,,,,,,left,0,3.99966740571,001,3.0.3,59.72237401988184,ninosDelConv2,2019_Aug_10_0841,144,
