ssAmount,llAmount,llDelay,ss_am,ss_del,ll_am,ll_del,Practice.thisRepN,Practice.thisTrialN,Practice.thisN,Practice.thisIndex,trials.thisRepN,trials.thisTrialN,trials.thisN,trials.thisIndex,key1.keys,key1.rt,key2.keys,key2.rt,key2_2.keys,key2_2.rt,key2_3.keys,key2_3.rt,key3.keys,key3.rt,key4.keys,key4.rt,respP.keys,respP.corr,respP.rt,key5.keys,key5.rt,respT.keys,respT.corr,respT.rt,key_resp_4.keys,key_resp_4.rt,session,psychopyVersion,frameRate,expName,date,participant,
,,,,,,,,,,,,,,,space,4.44863731507,,,,,,,,,,,,,,,,,,,,,001,3.0.3,59.71540724351988,ninosDelConv2,2019_Aug_10_0850,147,
,,,,,,,,,,,,,,,,,space,26.6462790305,,,,,,,,,,,,,,,,,,,001,3.0.3,59.71540724351988,ninosDelConv2,2019_Aug_10_0850,147,
,,,,,,,,,,,,,,,,,,,space,4.58381041978,,,,,,,,,,,,,,,,,001,3.0.3,59.71540724351988,ninosDelConv2,2019_Aug_10_0850,147,
,,,,,,,,,,,,,,,,,,,,,space,12.581551658,,,,,,,,,,,,,,,001,3.0.3,59.71540724351988,ninosDelConv2,2019_Aug_10_0850,147,
,,,,,,,,,,,,,,,,,,,,,,,right,8.59882908314,,,,,,,,,,,,,001,3.0.3,59.71540724351988,ninosDelConv2,2019_Aug_10_0850,147,
,,,,,,,,,,,,,,,,,,,,,,,,,space,2.13259202987,,,,,,,,,,,001,3.0.3,59.71540724351988,ninosDelConv2,2019_Aug_10_0850,147,
10,19,89,,,,,0,0,0,2,,,,,,,,,,,,,,,,,right,0,5.4815759724,,,,,,,,001,3.0.3,59.71540724351988,ninosDelConv2,2019_Aug_10_0850,147,
25,35,150,,,,,0,1,1,1,,,,,,,,,,,,,,,,,right,1,3.64839539956,,,,,,,,001,3.0.3,59.71540724351988,ninosDelConv2,2019_Aug_10_0850,147,
10,109,9,,,,,0,2,2,0,,,,,,,,,,,,,,,,,right,1,2.91778238304,,,,,,,,001,3.0.3,59.71540724351988,ninosDelConv2,2019_Aug_10_0850,147,
,,,,,,,,,,,,,,,,,,,,,,,,,,,,,,g,18.4979152456,,,,,,001,3.0.3,59.71540724351988,ninosDelConv2,2019_Aug_10_0850,147,
,,,10,0,61.0,4,,,,,0,0,0,2,,,,,,,,,,,,,,,,,,left,1,3.03332522791,,,001,3.0.3,59.71540724351988,ninosDelConv2,2019_Aug_10_0850,147,
,,,10,0,149.0,89,,,,,0,1,1,24,,,,,,,,,,,,,,,,,,right,1,2.03278135695,,,001,3.0.3,59.71540724351988,ninosDelConv2,2019_Aug_10_0850,147,
,,,10,0,19.0,11,,,,,0,2,2,5,,,,,,,,,,,,,,,,,,left,0,4.08204695117,,,001,3.0.3,59.71540724351988,ninosDelConv2,2019_Aug_10_0850,147,
,,,25,0,150.0,29,,,,,0,3,3,74,,,,,,,,,,,,,,,,,,left,1,2.28392808791,,,001,3.0.3,59.71540724351988,ninosDelConv2,2019_Aug_10_0850,147,
,,,10,0,39.0,6,,,,,0,4,4,1,,,,,,,,,,,,,,,,,,left,1,3.3989522513,,,001,3.0.3,59.71540724351988,ninosDelConv2,2019_Aug_10_0850,147,
,,,10,0,109.0,149,,,,,0,5,5,28,,,,,,,,,,,,,,,,,,left,1,1.71629809681,,,001,3.0.3,59.71540724351988,ninosDelConv2,2019_Aug_10_0850,147,
,,,25,0,150.0,89,,,,,0,6,6,84,,,,,,,,,,,,,,,,,,left,1,6.28254579101,,,001,3.0.3,59.71540724351988,ninosDelConv2,2019_Aug_10_0850,147,
,,,25,0,35.0,150,,,,,0,7,7,85,,,,,,,,,,,,,,,,,,right,0,2.14995581657,,,001,3.0.3,59.71540724351988,ninosDelConv2,2019_Aug_10_0850,147,
,,,25,0,150.0,4,,,,,0,8,8,64,,,,,,,,,,,,,,,,,,right,1,2.89983874001,,,001,3.0.3,59.71540724351988,ninosDelConv2,2019_Aug_10_0850,147,
,,,10,0,39.0,29,,,,,0,9,9,11,,,,,,,,,,,,,,,,,,right,0,9.26558039803,,,001,3.0.3,59.71540724351988,ninosDelConv2,2019_Aug_10_0850,147,
,,,25,0,150.0,61,,,,,0,10,10,79,,,,,,,,,,,,,,,,,,right,1,1.91651215032,,,001,3.0.3,59.71540724351988,ninosDelConv2,2019_Aug_10_0850,147,
,,,5,0,15.0,91,,,,,0,11,11,50,,,,,,,,,,,,,,,,,,left,1,3.33434413932,,,001,3.0.3,59.71540724351988,ninosDelConv2,2019_Aug_10_0850,147,
,,,5,0,56.0,29,,,,,0,12,12,42,,,,,,,,,,,,,,,,,,right,1,1.98323508911,,,001,3.0.3,59.71540724351988,ninosDelConv2,2019_Aug_10_0850,147,
,,,10,0,110.0,90,,,,,0,13,13,23,,,,,,,,,,,,,,,,,,right,1,3.58290413953,,,001,3.0.3,59.71540724351988,ninosDelConv2,2019_Aug_10_0850,147,
,,,5,0,15.0,61,,,,,0,14,14,45,,,,,,,,,,,,,,,,,,left,0,2.18355143815,,,001,3.0.3,59.71540724351988,ninosDelConv2,2019_Aug_10_0850,147,
,,,5,0,104.0,90,,,,,0,15,15,53,,,,,,,,,,,,,,,,,,left,1,3.31773138791,,,001,3.0.3,59.71540724351988,ninosDelConv2,2019_Aug_10_0850,147,
,,,10,0,21.0,31,,,,,0,16,16,10,,,,,,,,,,,,,,,,,,right,0,3.40006723814,,,001,3.0.3,59.71540724351988,ninosDelConv2,2019_Aug_10_0850,147,
,,,25,0,125.0,59,,,,,0,17,17,78,,,,,,,,,,,,,,,,,,left,1,3.38293117844,,,001,3.0.3,59.71540724351988,ninosDelConv2,2019_Aug_10_0850,147,
,,,5,0,151.0,150,,,,,0,18,18,59,,,,,,,,,,,,,,,,,,left,1,12.0981112039,,,001,3.0.3,59.71540724351988,ninosDelConv2,2019_Aug_10_0850,147,
,,,10,0,110.0,60,,,,,0,19,19,18,,,,,,,,,,,,,,,,,,right,1,2.71706044208,,,001,3.0.3,59.71540724351988,ninosDelConv2,2019_Aug_10_0850,147,
,,,25,0,55.0,11,,,,,0,20,20,66,,,,,,,,,,,,,,,,,,left,1,1.43336265162,,,001,3.0.3,59.71540724351988,ninosDelConv2,2019_Aug_10_0850,147,
,,,10,0,111.0,30,,,,,0,21,21,13,,,,,,,,,,,,,,,,,,left,1,2.68360258732,,,001,3.0.3,59.71540724351988,ninosDelConv2,2019_Aug_10_0850,147,
,,,5,0,36.0,9,,,,,0,22,22,36,,,,,,,,,,,,,,,,,,right,1,3.29928551335,,,001,3.0.3,59.71540724351988,ninosDelConv2,2019_Aug_10_0850,147,
,,,10,0,151.0,151,,,,,0,23,23,29,,,,,,,,,,,,,,,,,,left,0,2.63374377321,,,001,3.0.3,59.71540724351988,ninosDelConv2,2019_Aug_10_0850,147,
,,,25,0,125.0,4,,,,,0,24,24,63,,,,,,,,,,,,,,,,,,right,1,2.33402593806,,,001,3.0.3,59.71540724351988,ninosDelConv2,2019_Aug_10_0850,147,
,,,10,0,60.0,60,,,,,0,25,25,17,,,,,,,,,,,,,,,,,,left,0,10.1319510024,,,001,3.0.3,59.71540724351988,ninosDelConv2,2019_Aug_10_0850,147,
,,,5,0,151.0,4,,,,,0,26,26,34,,,,,,,,,,,,,,,,,,left,1,2.96854645014,,,001,3.0.3,59.71540724351988,ninosDelConv2,2019_Aug_10_0850,147,
,,,10,0,20.0,90,,,,,0,27,27,20,,,,,,,,,,,,,,,,,,right,0,2.38230146002,,,001,3.0.3,59.71540724351988,ninosDelConv2,2019_Aug_10_0850,147,
,,,5,0,55.0,151,,,,,0,28,28,57,,,,,,,,,,,,,,,,,,right,0,3.46615994442,,,001,3.0.3,59.71540724351988,ninosDelConv2,2019_Aug_10_0850,147,
,,,5,0,106.0,152,,,,,0,29,29,58,,,,,,,,,,,,,,,,,,left,0,4.15035163984,,,001,3.0.3,59.71540724351988,ninosDelConv2,2019_Aug_10_0850,147,
,,,5,0,106.0,29,,,,,0,30,30,43,,,,,,,,,,,,,,,,,,left,0,2.71679107659,,,001,3.0.3,59.71540724351988,ninosDelConv2,2019_Aug_10_0850,147,
,,,5,0,35.0,89,,,,,0,31,31,51,,,,,,,,,,,,,,,,,,left,0,7.43261727039,,,001,3.0.3,59.71540724351988,ninosDelConv2,2019_Aug_10_0850,147,
,,,5,0,105.0,60,,,,,0,32,32,48,,,,,,,,,,,,,,,,,,left,1,3.95073646214,,,001,3.0.3,59.71540724351988,ninosDelConv2,2019_Aug_10_0850,147,
,,,10,0,60.0,29,,,,,0,33,33,12,,,,,,,,,,,,,,,,,,left,1,13.798177979,,,001,3.0.3,59.71540724351988,ninosDelConv2,2019_Aug_10_0850,147,
,,,25,0,125.0,89,,,,,0,34,34,83,,,,,,,,,,,,,,,,,,left,0,4.79978697468,,,001,3.0.3,59.71540724351988,ninosDelConv2,2019_Aug_10_0850,147,
,,,25,0,35.0,30,,,,,0,35,35,70,,,,,,,,,,,,,,,,,,right,0,2.65072407387,,,001,3.0.3,59.71540724351988,ninosDelConv2,2019_Aug_10_0850,147,
,,,10,0,39.0,59,,,,,0,36,36,16,,,,,,,,,,,,,,,,,,left,0,3.03288622387,,,001,3.0.3,59.71540724351988,ninosDelConv2,2019_Aug_10_0850,147,
,,,25,0,150.0,9,,,,,0,37,37,69,,,,,,,,,,,,,,,,,,right,1,1.8662112467,,,001,3.0.3,59.71540724351988,ninosDelConv2,2019_Aug_10_0850,147,
,,,5,0,54.0,5,,,,,0,38,38,32,,,,,,,,,,,,,,,,,,right,1,5.75102464203,,,001,3.0.3,59.71540724351988,ninosDelConv2,2019_Aug_10_0850,147,
,,,25,0,55.0,90,,,,,0,39,39,81,,,,,,,,,,,,,,,,,,left,0,4.51672455855,,,001,3.0.3,59.71540724351988,ninosDelConv2,2019_Aug_10_0850,147,
,,,5,0,104.0,5,,,,,0,40,40,33,,,,,,,,,,,,,,,,,,right,1,5.449330776,,,001,3.0.3,59.71540724351988,ninosDelConv2,2019_Aug_10_0850,147,
,,,25,0,75.0,5,,,,,0,41,41,62,,,,,,,,,,,,,,,,,,right,1,3.29924798757,,,001,3.0.3,59.71540724351988,ninosDelConv2,2019_Aug_10_0850,147,
,,,25,0,55.0,30,,,,,0,42,42,71,,,,,,,,,,,,,,,,,,right,0,7.04930106364,,,001,3.0.3,59.71540724351988,ninosDelConv2,2019_Aug_10_0850,147,
,,,25,0,125.0,9,,,,,0,43,43,68,,,,,,,,,,,,,,,,,,left,0,1.43384175189,,,001,3.0.3,59.71540724351988,ninosDelConv2,2019_Aug_10_0850,147,
,,,25,0,35.0,90,,,,,0,44,44,80,,,,,,,,,,,,,,,,,,left,0,1.6505647162,,,001,3.0.3,59.71540724351988,ninosDelConv2,2019_Aug_10_0850,147,
,,,5,0,104.0,10,,,,,0,45,45,38,,,,,,,,,,,,,,,,,,left,1,2.01678033266,,,001,3.0.3,59.71540724351988,ninosDelConv2,2019_Aug_10_0850,147,
,,,10,0,61.0,89,,,,,0,46,46,22,,,,,,,,,,,,,,,,,,left,0,1.85055978131,,,001,3.0.3,59.71540724351988,ninosDelConv2,2019_Aug_10_0850,147,
,,,25,0,75.0,90,,,,,0,47,47,82,,,,,,,,,,,,,,,,,,left,0,1.65097698942,,,001,3.0.3,59.71540724351988,ninosDelConv2,2019_Aug_10_0850,147,
,,,10,0,150.0,5,,,,,0,48,48,4,,,,,,,,,,,,,,,,,,left,1,1.50042281114,,,001,3.0.3,59.71540724351988,ninosDelConv2,2019_Aug_10_0850,147,
,,,25,0,35.0,11,,,,,0,49,49,65,,,,,,,,,,,,,,,,,,right,0,2.00152263418,,,001,3.0.3,59.71540724351988,ninosDelConv2,2019_Aug_10_0850,147,
,,,5,0,56.0,9,,,,,0,50,50,37,,,,,,,,,,,,,,,,,,right,1,1.36544299033,,,001,3.0.3,59.71540724351988,ninosDelConv2,2019_Aug_10_0850,147,
,,,10,0,40.0,91,,,,,0,51,51,21,,,,,,,,,,,,,,,,,,right,0,1.91700513009,,,001,3.0.3,59.71540724351988,ninosDelConv2,2019_Aug_10_0850,147,
,,,25,0,75.0,31,,,,,0,52,52,72,,,,,,,,,,,,,,,,,,right,1,2.65102633927,,,001,3.0.3,59.71540724351988,ninosDelConv2,2019_Aug_10_0850,147,
,,,5,0,14.0,31,,,,,0,53,53,40,,,,,,,,,,,,,,,,,,left,0,3.98231184389,,,001,3.0.3,59.71540724351988,ninosDelConv2,2019_Aug_10_0850,147,
,,,5,0,150.0,30,,,,,0,54,54,44,,,,,,,,,,,,,,,,,,left,1,3.31642568577,,,001,3.0.3,59.71540724351988,ninosDelConv2,2019_Aug_10_0850,147,
,,,10,0,61.0,150,,,,,0,55,55,27,,,,,,,,,,,,,,,,,,right,0,6.91711565107,,,001,3.0.3,59.71540724351988,ninosDelConv2,2019_Aug_10_0850,147,
,,,10,0,149.0,61,,,,,0,56,56,19,,,,,,,,,,,,,,,,,,left,0,5.29870925657,,,001,3.0.3,59.71540724351988,ninosDelConv2,2019_Aug_10_0850,147,
,,,5,0,149.0,10,,,,,0,57,57,39,,,,,,,,,,,,,,,,,,left,1,2.30077370629,,,001,3.0.3,59.71540724351988,ninosDelConv2,2019_Aug_10_0850,147,
,,,25,0,125.0,31,,,,,0,58,58,73,,,,,,,,,,,,,,,,,,right,1,2.73417542595,,,001,3.0.3,59.71540724351988,ninosDelConv2,2019_Aug_10_0850,147,
,,,5,0,56.0,60,,,,,0,59,59,47,,,,,,,,,,,,,,,,,,right,1,2.3663857691,,,001,3.0.3,59.71540724351988,ninosDelConv2,2019_Aug_10_0850,147,
,,,25,0,150.0,150,,,,,0,60,60,89,,,,,,,,,,,,,,,,,,right,0,2.86662506312,,,001,3.0.3,59.71540724351988,ninosDelConv2,2019_Aug_10_0850,147,
,,,25,0,75.0,151,,,,,0,61,61,87,,,,,,,,,,,,,,,,,,right,0,5.29979854077,,,001,3.0.3,59.71540724351988,ninosDelConv2,2019_Aug_10_0850,147,
,,,5,0,149.0,59,,,,,0,62,62,49,,,,,,,,,,,,,,,,,,right,1,6.18312477227,,,001,3.0.3,59.71540724351988,ninosDelConv2,2019_Aug_10_0850,147,
,,,10,0,40.0,10,,,,,0,63,63,6,,,,,,,,,,,,,,,,,,left,1,1.78446399048,,,001,3.0.3,59.71540724351988,ninosDelConv2,2019_Aug_10_0850,147,
,,,10,0,111.0,10,,,,,0,64,64,8,,,,,,,,,,,,,,,,,,left,1,1.38439161237,,,001,3.0.3,59.71540724351988,ninosDelConv2,2019_Aug_10_0850,147,
,,,25,0,35.0,60,,,,,0,65,65,75,,,,,,,,,,,,,,,,,,right,0,6.4163838923,,,001,3.0.3,59.71540724351988,ninosDelConv2,2019_Aug_10_0850,147,
,,,10,0,20.0,59,,,,,0,66,66,15,,,,,,,,,,,,,,,,,,left,0,8.68128830753,,,001,3.0.3,59.71540724351988,ninosDelConv2,2019_Aug_10_0850,147,
,,,25,0,125.0,149,,,,,0,67,67,88,,,,,,,,,,,,,,,,,,right,0,6.43411728553,,,001,3.0.3,59.71540724351988,ninosDelConv2,2019_Aug_10_0850,147,
,,,5,0,150.0,90,,,,,0,68,68,54,,,,,,,,,,,,,,,,,,right,1,7.91566087306,,,001,3.0.3,59.71540724351988,ninosDelConv2,2019_Aug_10_0850,147,
,,,10,0,150.0,30,,,,,0,69,69,14,,,,,,,,,,,,,,,,,,right,1,3.2992186863,,,001,3.0.3,59.71540724351988,ninosDelConv2,2019_Aug_10_0850,147,
,,,5,0,56.0,89,,,,,0,70,70,52,,,,,,,,,,,,,,,,,,left,1,7.76383800432,,,001,3.0.3,59.71540724351988,ninosDelConv2,2019_Aug_10_0850,147,
,,,25,0,55.0,151,,,,,0,71,71,86,,,,,,,,,,,,,,,,,,right,0,3.98344019707,,,001,3.0.3,59.71540724351988,ninosDelConv2,2019_Aug_10_0850,147,
,,,5,0,15.0,11,,,,,0,72,72,35,,,,,,,,,,,,,,,,,,right,1,3.08307763282,,,001,3.0.3,59.71540724351988,ninosDelConv2,2019_Aug_10_0850,147,
,,,25,0,55.0,6,,,,,0,73,73,61,,,,,,,,,,,,,,,,,,left,1,2.78356747795,,,001,3.0.3,59.71540724351988,ninosDelConv2,2019_Aug_10_0850,147,
,,,10,0,59.0,9,,,,,0,74,74,7,,,,,,,,,,,,,,,,,,right,1,1.78363173455,,,001,3.0.3,59.71540724351988,ninosDelConv2,2019_Aug_10_0850,147,
,,,5,0,14.0,149,,,,,0,75,75,55,,,,,,,,,,,,,,,,,,left,0,5.33269761689,,,001,3.0.3,59.71540724351988,ninosDelConv2,2019_Aug_10_0850,147,
,,,10,0,151.0,11,,,,,0,76,76,9,,,,,,,,,,,,,,,,,,left,0,2.06638263352,,,001,3.0.3,59.71540724351988,ninosDelConv2,2019_Aug_10_0850,147,
,,,10,0,10.01,150,,,,,0,77,77,25,,,,,,,,,,,,,,,,,,right,0,4.68327410519,,,001,3.0.3,59.71540724351988,ninosDelConv2,2019_Aug_10_0850,147,
,,,5,0,35.0,150,,,,,0,78,78,56,,,,,,,,,,,,,,,,,,right,0,2.45091612544,,,001,3.0.3,59.71540724351988,ninosDelConv2,2019_Aug_10_0850,147,
,,,5,0,35.0,6,,,,,0,79,79,31,,,,,,,,,,,,,,,,,,right,1,4.63250232767,,,001,3.0.3,59.71540724351988,ninosDelConv2,2019_Aug_10_0850,147,
,,,10,0,20.0,5,,,,,0,80,80,0,,,,,,,,,,,,,,,,,,right,1,2.23419367522,,,001,3.0.3,59.71540724351988,ninosDelConv2,2019_Aug_10_0850,147,
,,,25,0,75.0,10,,,,,0,81,81,67,,,,,,,,,,,,,,,,,,left,1,4.14976047538,,,001,3.0.3,59.71540724351988,ninosDelConv2,2019_Aug_10_0850,147,
,,,5,0,35.0,31,,,,,0,82,82,41,,,,,,,,,,,,,,,,,,right,1,2.74930512439,,,001,3.0.3,59.71540724351988,ninosDelConv2,2019_Aug_10_0850,147,
,,,5,0,16.0,4,,,,,0,83,83,30,,,,,,,,,,,,,,,,,,left,1,0.834721198305,,,001,3.0.3,59.71540724351988,ninosDelConv2,2019_Aug_10_0850,147,
,,,5,0,36.0,61,,,,,0,84,84,46,,,,,,,,,,,,,,,,,,left,1,0.89993692562,,,001,3.0.3,59.71540724351988,ninosDelConv2,2019_Aug_10_0850,147,
,,,10,0,39.0,150,,,,,0,85,85,26,,,,,,,,,,,,,,,,,,right,1,1.56810754817,,,001,3.0.3,59.71540724351988,ninosDelConv2,2019_Aug_10_0850,147,
,,,25,0,75.0,59,,,,,0,86,86,77,,,,,,,,,,,,,,,,,,right,0,4.23231582809,,,001,3.0.3,59.71540724351988,ninosDelConv2,2019_Aug_10_0850,147,
,,,25,0,35.0,5,,,,,0,87,87,60,,,,,,,,,,,,,,,,,,left,1,3.01678701583,,,001,3.0.3,59.71540724351988,ninosDelConv2,2019_Aug_10_0850,147,
,,,10,0,109.0,5,,,,,0,88,88,3,,,,,,,,,,,,,,,,,,right,1,2.95004505664,,,001,3.0.3,59.71540724351988,ninosDelConv2,2019_Aug_10_0850,147,
,,,25,0,55.0,60,,,,,0,89,89,76,,,,,,,,,,,,,,,,,,right,1,2.06575702783,,,001,3.0.3,59.71540724351988,ninosDelConv2,2019_Aug_10_0850,147,
,,,,,,,,,,,,,,,,,,,,,,,,,,,,,,,,,,,space,2.38446409442,001,3.0.3,59.71540724351988,ninosDelConv2,2019_Aug_10_0850,147,
