ssAmount,llAmount,llDelay,ss_am,ss_del,ll_am,ll_del,Practice.thisRepN,Practice.thisTrialN,Practice.thisN,Practice.thisIndex,trials.thisRepN,trials.thisTrialN,trials.thisN,trials.thisIndex,intro1.started,intro1.stopped,key1.keys,key1.rt,key1.started,key1.stopped,intro2.started,intro2.stopped,key2.keys,key2.rt,key2.started,key2.stopped,intro2_2.started,intro2_2.stopped,key2_2.keys,key2_2.rt,key2_2.started,key2_2.stopped,Intro2_3.started,Intro2_3.stopped,key2_3.keys,key2_3.rt,key2_3.started,key2_3.stopped,key3.keys,key3.rt,key3.started,key3.stopped,intro3.started,intro3.stopped,ss_am.started,ss_am.stopped,ss_del.started,ss_del.stopped,ll_am.started,ll_am.stopped,ll_del.started,ll_del.stopped,Intro4.started,Intro4.stopped,key4.keys,key4.rt,key4.started,key4.stopped,pregunta.started,pregunta.stopped,ssAm_P.started,ssAm_P.stopped,ssDel_P.started,ssDel_P.stopped,llAm_P.started,llAm_P.stopped,llDel_P.started,llDel_P.stopped,respP.keys,respP.corr,respP.rt,respP.started,respP.stopped,feedbackP.started,feedbackP.stopped,comienzo.started,comienzo.stopped,key5.keys,key5.rt,key5.started,key5.stopped,preguntaT.started,preguntaT.stopped,ssAm_T.started,ssAm_T.stopped,ssDel_T.started,ssDel_T.stopped,llAm_T.started,llAm_T.stopped,llDel_T.started,llDel_T.stopped,respT.keys,respT.corr,respT.rt,respT.started,respT.stopped,textfbT.started,textfbT.stopped,Gracias.started,Gracias.stopped,key_resp_4.keys,key_resp_4.rt,key_resp_4.started,key_resp_4.stopped,session,participant,date,expName,psychopyVersion,frameRate,
,,,,,,,,,,,,,,,44.90427089994773,None,space,12.568269200040959,45.39442629995756,None,,,,,,,,,,,,,,,,,,,,,,,,,,,,,,,,,,,,,,,,,,,,,,,,,,,,,,,,,,,,,,,,,,,,,,,,,,,,,,,,,,,,,001,187,2019_Aug_24_0850,ninosDelConv2,3.1.5,60.49540900084874,
,,,,,,,,,,,,,,,,,,,,,57.991771499975584,None,space,7.71925750002265,58.506609799922444,None,,,,,,,,,,,,,,,,,,,,,,,,,,,,,,,,,,,,,,,,,,,,,,,,,,,,,,,,,,,,,,,,,,,,,,,,,,,,,,,001,187,2019_Aug_24_0850,ninosDelConv2,3.1.5,60.49540900084874,
,,,,,,,,,,,,,,,,,,,,,,,,,,,66.25685039989185,None,space,2.1991897999541834,66.77276779990643,None,,,,,,,,,,,,,,,,,,,,,,,,,,,,,,,,,,,,,,,,,,,,,,,,,,,,,,,,,,,,,,,,,,,,,,,,,001,187,2019_Aug_24_0850,ninosDelConv2,3.1.5,60.49540900084874,
,,,,,,,,,,,,,,,,,,,,,,,,,,,,,,,,,68.9885792999994,None,space,2.550872400053777,69.50603940000292,None,,,,,,,,,,,,,,,,,,,,,,,,,,,,,,,,,,,,,,,,,,,,,,,,,,,,,,,,,,,,,,,,,,,001,187,2019_Aug_24_0850,ninosDelConv2,3.1.5,60.49540900084874,
,,,,,,,,,,,,,,,,,,,,,,,,,,,,,,,,,,,,,,,left,5.973096100031398,72.5890090999892,None,,,,,,,,,,,,,,,,,,,,,,,,,,,,,,,,,,,,,,,,,,,,,,,,,,,,,,,,,,,,,,,001,187,2019_Aug_24_0850,ninosDelConv2,3.1.5,60.49540900084874,
,,,,,,,,,,,,,,,,,,,,,,,,,,,,,,,,,,,,,,,,,,,72.07346280000638,None,72.07346280000638,None,72.07346280000638,None,72.07346280000638,None,72.07346280000638,None,78.58718809997663,None,space,0.8762155000586063,79.10335709992796,None,,,,,,,,,,,,,,,,,,,,,,,,,,,,,,,,,,,,,,,,,,,,,,,001,187,2019_Aug_24_0850,ninosDelConv2,3.1.5,60.49540900084874,
10,109,9,,,,,0,0,0,0,,,,,,,,,,,,,,,,,,,,,,,,,,,,,,,,,,,,,,,,,,,,,,,,,80.21647459990345,None,80.21647459990345,None,80.21647459990345,None,80.21647459990345,None,80.21647459990345,None,right,0,6.2518769999733195,80.72052629990503,None,87.00340329995379,None,,,,,,,,,,,,,,,,,,,,,,,,,,,,,,001,187,2019_Aug_24_0850,ninosDelConv2,3.1.5,60.49540900084874,
10,19,89,,,,,0,1,1,2,,,,,,,,,,,,,,,,,,,,,,,,,,,,,,,,,,,,,,,,,,,,,,,,,90.01921069994569,None,90.01921069994569,None,90.01921069994569,None,90.01921069994569,None,90.01921069994569,None,right,1,3.8868682000320405,90.51685399992857,None,94.43501289992128,None,,,,,,,,,,,,,,,,,,,,,,,,,,,,,,001,187,2019_Aug_24_0850,ninosDelConv2,3.1.5,60.49540900084874,
25,35,150,,,,,0,2,2,1,,,,,,,,,,,,,,,,,,,,,,,,,,,,,,,,,,,,,,,,,,,,,,,,,97.45149419992231,None,97.45149419992231,None,97.45149419992231,None,97.45149419992231,None,97.45149419992231,None,left,0,2.0451607999857515,97.94944729993585,None,100.02220829995349,None,,,,,,,,,,,,,,,,,,,,,,,,,,,,,,001,187,2019_Aug_24_0850,ninosDelConv2,3.1.5,60.49540900084874,
,,,,,,,,,,,,,,,,,,,,,,,,,,,,,,,,,,,,,,,,,,,,,,,,,,,,,,,,,,,,,,,,,,,,,,,,,,,,103.0166616999777,None,g,58.00710779998917,103.53291759989224,None,,,,,,,,,,,,,,,,,,,,,,,,001,187,2019_Aug_24_0850,ninosDelConv2,3.1.5,60.49540900084874,
,,,5,0,14.0,149,,,,,0,0,0,55,,,,,,,,,,,,,,,,,,,,,,,,,,,,,,,,,,,,,,,,,,,,,,,,,,,,,,,,,,,,,,,,,,,,161.60126979998313,None,161.60126979998313,None,161.60126979998313,None,161.60126979998313,None,161.60126979998313,None,right,0,3.398899200023152,162.10379239998292,None,165.53192280000076,None,,,,,,,001,187,2019_Aug_24_0850,ninosDelConv2,3.1.5,60.49540900084874,
,,,25,0,150.0,9,,,,,0,1,1,69,,,,,,,,,,,,,,,,,,,,,,,,,,,,,,,,,,,,,,,,,,,,,,,,,,,,,,,,,,,,,,,,,,,,168.55707280000206,None,168.55707280000206,None,168.55707280000206,None,168.55707280000206,None,168.55707280000206,None,right,1,2.134478299994953,169.05279599991627,None,171.20646009990014,None,,,,,,,001,187,2019_Aug_24_0850,ninosDelConv2,3.1.5,60.49540900084874,
,,,25,0,125.0,4,,,,,0,2,2,63,,,,,,,,,,,,,,,,,,,,,,,,,,,,,,,,,,,,,,,,,,,,,,,,,,,,,,,,,,,,,,,,,,,,174.21869389992207,None,174.21869389992207,None,174.21869389992207,None,174.21869389992207,None,174.21869389992207,None,left,1,1.5948020999785513,174.71901579992846,None,176.33475839998573,None,,,,,,,001,187,2019_Aug_24_0850,ninosDelConv2,3.1.5,60.49540900084874,
,,,25,0,150.0,4,,,,,0,3,3,64,,,,,,,,,,,,,,,,,,,,,,,,,,,,,,,,,,,,,,,,,,,,,,,,,,,,,,,,,,,,,,,,,,,,179.34535959991626,None,179.34535959991626,None,179.34535959991626,None,179.34535959991626,None,179.34535959991626,None,left,1,4.516385199967772,179.8507006999571,None,184.38333270000294,None,,,,,,,001,187,2019_Aug_24_0850,ninosDelConv2,3.1.5,60.49540900084874,
,,,10,0,111.0,10,,,,,0,4,4,8,,,,,,,,,,,,,,,,,,,,,,,,,,,,,,,,,,,,,,,,,,,,,,,,,,,,,,,,,,,,,,,,,,,,187.3963228999637,None,187.3963228999637,None,187.3963228999637,None,187.3963228999637,None,187.3963228999637,None,right,0,5.146735699963756,187.8986653999891,None,193.06553409993649,None,,,,,,,001,187,2019_Aug_24_0850,ninosDelConv2,3.1.5,60.49540900084874,
,,,10,0,39.0,6,,,,,0,5,5,1,,,,,,,,,,,,,,,,,,,,,,,,,,,,,,,,,,,,,,,,,,,,,,,,,,,,,,,,,,,,,,,,,,,,196.0818495999556,None,196.0818495999556,None,196.0818495999556,None,196.0818495999556,None,196.0818495999556,None,left,0,3.147527899942361,196.58064719999675,None,199.74688689992763,None,,,,,,,001,187,2019_Aug_24_0850,ninosDelConv2,3.1.5,60.49540900084874,
,,,5,0,54.0,5,,,,,0,6,6,32,,,,,,,,,,,,,,,,,,,,,,,,,,,,,,,,,,,,,,,,,,,,,,,,,,,,,,,,,,,,,,,,,,,,202.76905419991817,None,202.76905419991817,None,202.76905419991817,None,202.76905419991817,None,202.76905419991817,None,left,1,1.878765199915506,203.26293339999393,None,205.16471209994052,None,,,,,,,001,187,2019_Aug_24_0850,ninosDelConv2,3.1.5,60.49540900084874,
,,,10,0,109.0,149,,,,,0,7,7,28,,,,,,,,,,,,,,,,,,,,,,,,,,,,,,,,,,,,,,,,,,,,,,,,,,,,,,,,,,,,,,,,,,,,208.18023359996732,None,208.18023359996732,None,208.18023359996732,None,208.18023359996732,None,208.18023359996732,None,left,0,1.557293099933304,208.67893870000262,None,210.26262509997468,None,,,,,,,001,187,2019_Aug_24_0850,ninosDelConv2,3.1.5,60.49540900084874,
,,,10,0,110.0,90,,,,,0,8,8,23,,,,,,,,,,,,,,,,,,,,,,,,,,,,,,,,,,,,,,,,,,,,,,,,,,,,,,,,,,,,,,,,,,,,213.26583179994486,None,213.26583179994486,None,213.26583179994486,None,213.26583179994486,None,213.26583179994486,None,left,0,2.356402999954298,213.77757649996784,None,216.1614117999561,None,,,,,,,001,187,2019_Aug_24_0850,ninosDelConv2,3.1.5,60.49540900084874,
,,,5,0,149.0,59,,,,,0,9,9,49,,,,,,,,,,,,,,,,,,,,,,,,,,,,,,,,,,,,,,,,,,,,,,,,,,,,,,,,,,,,,,,,,,,,219.17368539993186,None,219.17368539993186,None,219.17368539993186,None,219.17368539993186,None,219.17368539993186,None,right,1,1.4071200999896973,219.67667259997688,None,221.11731699993834,None,,,,,,,001,187,2019_Aug_24_0850,ninosDelConv2,3.1.5,60.49540900084874,
,,,10,0,39.0,29,,,,,0,10,10,11,,,,,,,,,,,,,,,,,,,,,,,,,,,,,,,,,,,,,,,,,,,,,,,,,,,,,,,,,,,,,,,,,,,,224.11891029996332,None,224.11891029996332,None,224.11891029996332,None,224.11891029996332,None,224.11891029996332,None,right,0,1.4283245999831706,224.62651519989595,None,226.07787289994303,None,,,,,,,001,187,2019_Aug_24_0850,ninosDelConv2,3.1.5,60.49540900084874,
,,,25,0,125.0,31,,,,,0,11,11,73,,,,,,,,,,,,,,,,,,,,,,,,,,,,,,,,,,,,,,,,,,,,,,,,,,,,,,,,,,,,,,,,,,,,229.09290839999449,None,229.09290839999449,None,229.09290839999449,None,229.09290839999449,None,229.09290839999449,None,left,1,2.4756483000237495,229.5913846999174,None,232.1013986999169,None,,,,,,,001,187,2019_Aug_24_0850,ninosDelConv2,3.1.5,60.49540900084874,
,,,25,0,35.0,5,,,,,0,12,12,60,,,,,,,,,,,,,,,,,,,,,,,,,,,,,,,,,,,,,,,,,,,,,,,,,,,,,,,,,,,,,,,,,,,,235.10643879999407,None,235.10643879999407,None,235.10643879999407,None,235.10643879999407,None,235.10643879999407,None,left,1,1.411791899939999,235.606952299946,None,237.03975499991793,None,,,,,,,001,187,2019_Aug_24_0850,ninosDelConv2,3.1.5,60.49540900084874,
,,,25,0,35.0,30,,,,,0,13,13,70,,,,,,,,,,,,,,,,,,,,,,,,,,,,,,,,,,,,,,,,,,,,,,,,,,,,,,,,,,,,,,,,,,,,240.03958579991013,None,240.03958579991013,None,240.03958579991013,None,240.03958579991013,None,240.03958579991013,None,right,0,5.610499499947764,240.5549484998919,None,246.19657229993027,None,,,,,,,001,187,2019_Aug_24_0850,ninosDelConv2,3.1.5,60.49540900084874,
,,,10,0,151.0,11,,,,,0,14,14,9,,,,,,,,,,,,,,,,,,,,,,,,,,,,,,,,,,,,,,,,,,,,,,,,,,,,,,,,,,,,,,,,,,,,249.19570459995884,None,249.19570459995884,None,249.19570459995884,None,249.19570459995884,None,249.19570459995884,None,right,1,1.405082199955359,249.70495789998677,None,251.13691919995472,None,,,,,,,001,187,2019_Aug_24_0850,ninosDelConv2,3.1.5,60.49540900084874,
,,,25,0,75.0,5,,,,,0,15,15,62,,,,,,,,,,,,,,,,,,,,,,,,,,,,,,,,,,,,,,,,,,,,,,,,,,,,,,,,,,,,,,,,,,,,254.14079979993403,None,254.14079979993403,None,254.14079979993403,None,254.14079979993403,None,254.14079979993403,None,right,1,2.159470200072974,254.65383389999624,None,256.83611349994317,None,,,,,,,001,187,2019_Aug_24_0850,ninosDelConv2,3.1.5,60.49540900084874,
,,,10,0,109.0,5,,,,,0,16,16,3,,,,,,,,,,,,,,,,,,,,,,,,,,,,,,,,,,,,,,,,,,,,,,,,,,,,,,,,,,,,,,,,,,,,259.8479190999642,None,259.8479190999642,None,259.8479190999642,None,259.8479190999642,None,259.8479190999642,None,left,1,1.738136600004509,260.3522426999407,None,262.1185051999055,None,,,,,,,001,187,2019_Aug_24_0850,ninosDelConv2,3.1.5,60.49540900084874,
,,,10,0,40.0,91,,,,,0,17,17,21,,,,,,,,,,,,,,,,,,,,,,,,,,,,,,,,,,,,,,,,,,,,,,,,,,,,,,,,,,,,,,,,,,,,265.13111169997137,None,265.13111169997137,None,265.13111169997137,None,265.13111169997137,None,265.13111169997137,None,right,0,1.8131425000028685,265.6350459998939,None,267.4713997999206,None,,,,,,,001,187,2019_Aug_24_0850,ninosDelConv2,3.1.5,60.49540900084874,
,,,10,0,60.0,60,,,,,0,18,18,17,,,,,,,,,,,,,,,,,,,,,,,,,,,,,,,,,,,,,,,,,,,,,,,,,,,,,,,,,,,,,,,,,,,,270.4802631000057,None,270.4802631000057,None,270.4802631000057,None,270.4802631000057,None,270.4802631000057,None,right,1,1.3660738000180572,270.98441779997665,None,272.38191529992037,None,,,,,,,001,187,2019_Aug_24_0850,ninosDelConv2,3.1.5,60.49540900084874,
,,,10,0,61.0,150,,,,,0,19,19,27,,,,,,,,,,,,,,,,,,,,,,,,,,,,,,,,,,,,,,,,,,,,,,,,,,,,,,,,,,,,,,,,,,,,275.38031429995317,None,275.38031429995317,None,275.38031429995317,None,275.38031429995317,None,275.38031429995317,None,right,0,1.89508280006703,275.8826382999541,None,277.79789709998295,None,,,,,,,001,187,2019_Aug_24_0850,ninosDelConv2,3.1.5,60.49540900084874,
,,,5,0,35.0,89,,,,,0,20,20,51,,,,,,,,,,,,,,,,,,,,,,,,,,,,,,,,,,,,,,,,,,,,,,,,,,,,,,,,,,,,,,,,,,,,280.81992059992626,None,280.81992059992626,None,280.81992059992626,None,280.81992059992626,None,280.81992059992626,None,left,0,1.552973399986513,281.3154561999254,None,282.8987794999266,None,,,,,,,001,187,2019_Aug_24_0850,ninosDelConv2,3.1.5,60.49540900084874,
,,,10,0,21.0,31,,,,,0,21,21,10,,,,,,,,,,,,,,,,,,,,,,,,,,,,,,,,,,,,,,,,,,,,,,,,,,,,,,,,,,,,,,,,,,,,285.9180369999958,None,285.9180369999958,None,285.9180369999958,None,285.9180369999958,None,285.9180369999958,None,right,0,3.61875359993428,286.41355549998116,None,290.0472736998927,None,,,,,,,001,187,2019_Aug_24_0850,ninosDelConv2,3.1.5,60.49540900084874,
,,,5,0,36.0,9,,,,,0,22,22,36,,,,,,,,,,,,,,,,,,,,,,,,,,,,,,,,,,,,,,,,,,,,,,,,,,,,,,,,,,,,,,,,,,,,293.0641700999113,None,293.0641700999113,None,293.0641700999113,None,293.0641700999113,None,293.0641700999113,None,right,1,4.3946031999075785,293.56253349990584,None,297.9861930999905,None,,,,,,,001,187,2019_Aug_24_0850,ninosDelConv2,3.1.5,60.49540900084874,
,,,5,0,106.0,152,,,,,0,23,23,58,,,,,,,,,,,,,,,,,,,,,,,,,,,,,,,,,,,,,,,,,,,,,,,,,,,,,,,,,,,,,,,,,,,,300.99357849999797,None,300.99357849999797,None,300.99357849999797,None,300.99357849999797,None,300.99357849999797,None,left,0,1.1264107000315562,301.49546899995767,None,302.6549943999853,None,,,,,,,001,187,2019_Aug_24_0850,ninosDelConv2,3.1.5,60.49540900084874,
,,,25,0,35.0,11,,,,,0,24,24,65,,,,,,,,,,,,,,,,,,,,,,,,,,,,,,,,,,,,,,,,,,,,,,,,,,,,,,,,,,,,,,,,,,,,305.66720359993633,None,305.66720359993633,None,305.66720359993633,None,305.66720359993633,None,305.66720359993633,None,right,0,1.7357776000862941,306.160814999952,None,307.92650269996375,None,,,,,,,001,187,2019_Aug_24_0850,ninosDelConv2,3.1.5,60.49540900084874,
,,,10,0,110.0,60,,,,,0,25,25,18,,,,,,,,,,,,,,,,,,,,,,,,,,,,,,,,,,,,,,,,,,,,,,,,,,,,,,,,,,,,,,,,,,,,310.93229059991427,None,310.93229059991427,None,310.93229059991427,None,310.93229059991427,None,310.93229059991427,None,right,0,2.644281700020656,311.4435395000037,None,314.1100118999602,None,,,,,,,001,187,2019_Aug_24_0850,ninosDelConv2,3.1.5,60.49540900084874,
,,,25,0,55.0,60,,,,,0,26,26,76,,,,,,,,,,,,,,,,,,,,,,,,,,,,,,,,,,,,,,,,,,,,,,,,,,,,,,,,,,,,,,,,,,,,317.1235979999183,None,317.1235979999183,None,317.1235979999183,None,317.1235979999183,None,317.1235979999183,None,left,0,4.217650399892591,317.62569239991717,None,321.8588592999149,None,,,,,,,001,187,2019_Aug_24_0850,ninosDelConv2,3.1.5,60.49540900084874,
,,,5,0,149.0,10,,,,,0,27,27,39,,,,,,,,,,,,,,,,,,,,,,,,,,,,,,,,,,,,,,,,,,,,,,,,,,,,,,,,,,,,,,,,,,,,324.87801759992726,None,324.87801759992726,None,324.87801759992726,None,324.87801759992726,None,324.87801759992726,None,right,1,1.520667500095442,325.3728740999941,None,326.9287490999559,None,,,,,,,001,187,2019_Aug_24_0850,ninosDelConv2,3.1.5,60.49540900084874,
,,,5,0,16.0,4,,,,,0,28,28,30,,,,,,,,,,,,,,,,,,,,,,,,,,,,,,,,,,,,,,,,,,,,,,,,,,,,,,,,,,,,,,,,,,,,329.93860949994996,None,329.93860949994996,None,329.93860949994996,None,329.93860949994996,None,329.93860949994996,None,left,1,4.018354099942371,330.4398711998947,None,334.4887375999242,None,,,,,,,001,187,2019_Aug_24_0850,ninosDelConv2,3.1.5,60.49540900084874,
,,,25,0,150.0,61,,,,,0,29,29,79,,,,,,,,,,,,,,,,,,,,,,,,,,,,,,,,,,,,,,,,,,,,,,,,,,,,,,,,,,,,,,,,,,,,337.512098499923,None,337.512098499923,None,337.512098499923,None,337.512098499923,None,337.512098499923,None,left,0,1.4382346000056714,338.00499349995516,None,339.47966499999166,None,,,,,,,001,187,2019_Aug_24_0850,ninosDelConv2,3.1.5,60.49540900084874,
,,,25,0,75.0,31,,,,,0,30,30,72,,,,,,,,,,,,,,,,,,,,,,,,,,,,,,,,,,,,,,,,,,,,,,,,,,,,,,,,,,,,,,,,,,,,342.4874964999035,None,342.4874964999035,None,342.4874964999035,None,342.4874964999035,None,342.4874964999035,None,left,1,0.9765951000154018,342.98749689990655,None,343.986928600003,None,,,,,,,001,187,2019_Aug_24_0850,ninosDelConv2,3.1.5,60.49540900084874,
,,,5,0,56.0,60,,,,,0,31,31,47,,,,,,,,,,,,,,,,,,,,,,,,,,,,,,,,,,,,,,,,,,,,,,,,,,,,,,,,,,,,,,,,,,,,347.0073133999249,None,347.0073133999249,None,347.0073133999249,None,347.0073133999249,None,347.0073133999249,None,right,1,0.7272257000440732,347.5033165999921,None,348.25365389999934,None,,,,,,,001,187,2019_Aug_24_0850,ninosDelConv2,3.1.5,60.49540900084874,
,,,10,0,20.0,90,,,,,0,32,32,20,,,,,,,,,,,,,,,,,,,,,,,,,,,,,,,,,,,,,,,,,,,,,,,,,,,,,,,,,,,,,,,,,,,,351.2732077999972,None,351.2732077999972,None,351.2732077999972,None,351.2732077999972,None,351.2732077999972,None,right,1,2.092011799919419,351.7688080999069,None,353.8836543998914,None,,,,,,,001,187,2019_Aug_24_0850,ninosDelConv2,3.1.5,60.49540900084874,
,,,5,0,104.0,90,,,,,0,33,33,53,,,,,,,,,,,,,,,,,,,,,,,,,,,,,,,,,,,,,,,,,,,,,,,,,,,,,,,,,,,,,,,,,,,,356.90148329990916,None,356.90148329990916,None,356.90148329990916,None,356.90148329990916,None,356.90148329990916,None,left,1,1.449459300027229,357.4003450999735,None,358.86712499998976,None,,,,,,,001,187,2019_Aug_24_0850,ninosDelConv2,3.1.5,60.49540900084874,
,,,25,0,75.0,59,,,,,0,34,34,77,,,,,,,,,,,,,,,,,,,,,,,,,,,,,,,,,,,,,,,,,,,,,,,,,,,,,,,,,,,,,,,,,,,,361.8886790999677,None,361.8886790999677,None,361.8886790999677,None,361.8886790999677,None,361.8886790999677,None,left,0,3.4061179000418633,362.3839213999454,None,365.82573939999565,None,,,,,,,001,187,2019_Aug_24_0850,ninosDelConv2,3.1.5,60.49540900084874,
,,,5,0,56.0,9,,,,,0,35,35,37,,,,,,,,,,,,,,,,,,,,,,,,,,,,,,,,,,,,,,,,,,,,,,,,,,,,,,,,,,,,,,,,,,,,368.8374709999189,None,368.8374709999189,None,368.8374709999189,None,368.8374709999189,None,368.8374709999189,None,left,1,3.237205399898812,369.3325498999329,None,372.6085322999861,None,,,,,,,001,187,2019_Aug_24_0850,ninosDelConv2,3.1.5,60.49540900084874,
,,,10,0,20.0,5,,,,,0,36,36,0,,,,,,,,,,,,,,,,,,,,,,,,,,,,,,,,,,,,,,,,,,,,,,,,,,,,,,,,,,,,,,,,,,,,375.61870200000703,None,375.61870200000703,None,375.61870200000703,None,375.61870200000703,None,375.61870200000703,None,right,0,2.7819170999573544,376.1145864999853,None,378.9243732999312,None,,,,,,,001,187,2019_Aug_24_0850,ninosDelConv2,3.1.5,60.49540900084874,
,,,5,0,36.0,61,,,,,0,37,37,46,,,,,,,,,,,,,,,,,,,,,,,,,,,,,,,,,,,,,,,,,,,,,,,,,,,,,,,,,,,,,,,,,,,,381.9335993999848,None,381.9335993999848,None,381.9335993999848,None,381.9335993999848,None,381.9335993999848,None,right,0,0.8507559000281617,382.42950699990615,None,383.2962162999902,None,,,,,,,001,187,2019_Aug_24_0850,ninosDelConv2,3.1.5,60.49540900084874,
,,,25,0,55.0,30,,,,,0,38,38,71,,,,,,,,,,,,,,,,,,,,,,,,,,,,,,,,,,,,,,,,,,,,,,,,,,,,,,,,,,,,,,,,,,,,386.3197906999849,None,386.3197906999849,None,386.3197906999849,None,386.3197906999849,None,386.3197906999849,None,left,0,1.2630056999623775,386.8125042999163,None,388.09473899996374,None,,,,,,,001,187,2019_Aug_24_0850,ninosDelConv2,3.1.5,60.49540900084874,
,,,10,0,60.0,29,,,,,0,39,39,12,,,,,,,,,,,,,,,,,,,,,,,,,,,,,,,,,,,,,,,,,,,,,,,,,,,,,,,,,,,,,,,,,,,,391.11750969989225,None,391.11750969989225,None,391.11750969989225,None,391.11750969989225,None,391.11750969989225,None,left,1,0.8508091999683529,391.6116418999154,None,392.48664829996414,None,,,,,,,001,187,2019_Aug_24_0850,ninosDelConv2,3.1.5,60.49540900084874,
,,,25,0,35.0,90,,,,,0,40,40,80,,,,,,,,,,,,,,,,,,,,,,,,,,,,,,,,,,,,,,,,,,,,,,,,,,,,,,,,,,,,,,,,,,,,395.49908369989134,None,395.49908369989134,None,395.49908369989134,None,395.49908369989134,None,395.49908369989134,None,left,0,0.8121013999916613,395.99406099994667,None,396.83207349991426,None,,,,,,,001,187,2019_Aug_24_0850,ninosDelConv2,3.1.5,60.49540900084874,
,,,25,0,55.0,151,,,,,0,41,41,86,,,,,,,,,,,,,,,,,,,,,,,,,,,,,,,,,,,,,,,,,,,,,,,,,,,,,,,,,,,,,,,,,,,,399.84323209989816,None,399.84323209989816,None,399.84323209989816,None,399.84323209989816,None,399.84323209989816,None,left,0,0.6961658999789506,400.3432862999616,None,401.0594063999597,None,,,,,,,001,187,2019_Aug_24_0850,ninosDelConv2,3.1.5,60.49540900084874,
,,,10,0,19.0,11,,,,,0,42,42,5,,,,,,,,,,,,,,,,,,,,,,,,,,,,,,,,,,,,,,,,,,,,,,,,,,,,,,,,,,,,,,,,,,,,404.08286089997273,None,404.08286089997273,None,404.08286089997273,None,404.08286089997273,None,404.08286089997273,None,right,1,0.842217699973844,404.57543559989426,None,405.45130809990223,None,,,,,,,001,187,2019_Aug_24_0850,ninosDelConv2,3.1.5,60.49540900084874,
,,,5,0,150.0,90,,,,,0,43,43,54,,,,,,,,,,,,,,,,,,,,,,,,,,,,,,,,,,,,,,,,,,,,,,,,,,,,,,,,,,,,,,,,,,,,408.46279239992145,None,408.46279239992145,None,408.46279239992145,None,408.46279239992145,None,408.46279239992145,None,right,1,0.8132681999122724,408.9576311999699,None,409.7917316999519,None,,,,,,,001,187,2019_Aug_24_0850,ninosDelConv2,3.1.5,60.49540900084874,
,,,10,0,149.0,61,,,,,0,44,44,19,,,,,,,,,,,,,,,,,,,,,,,,,,,,,,,,,,,,,,,,,,,,,,,,,,,,,,,,,,,,,,,,,,,,412.81307939998806,None,412.81307939998806,None,412.81307939998806,None,412.81307939998806,None,412.81307939998806,None,left,0,0.6147748000221327,413.30746379995253,None,413.93999109999277,None,,,,,,,001,187,2019_Aug_24_0850,ninosDelConv2,3.1.5,60.49540900084874,
,,,10,0,39.0,150,,,,,0,45,45,26,,,,,,,,,,,,,,,,,,,,,,,,,,,,,,,,,,,,,,,,,,,,,,,,,,,,,,,,,,,,,,,,,,,,416.95505079999566,None,416.95505079999566,None,416.95505079999566,None,416.95505079999566,None,416.95505079999566,None,right,0,1.3341892999596894,417.4567675999133,None,418.8067380998982,None,,,,,,,001,187,2019_Aug_24_0850,ninosDelConv2,3.1.5,60.49540900084874,
,,,5,0,56.0,29,,,,,0,46,46,42,,,,,,,,,,,,,,,,,,,,,,,,,,,,,,,,,,,,,,,,,,,,,,,,,,,,,,,,,,,,,,,,,,,,421.8273640999105,None,421.8273640999105,None,421.8273640999105,None,421.8273640999105,None,421.8273640999105,None,right,0,2.1894529000855982,422.3218681999715,None,424.538402199978,None,,,,,,,001,187,2019_Aug_24_0850,ninosDelConv2,3.1.5,60.49540900084874,
,,,10,0,10.01,150,,,,,0,47,47,25,,,,,,,,,,,,,,,,,,,,,,,,,,,,,,,,,,,,,,,,,,,,,,,,,,,,,,,,,,,,,,,,,,,,427.55863059998956,None,427.55863059998956,None,427.55863059998956,None,427.55863059998956,None,427.55863059998956,None,right,0,2.3260713999625295,428.05463799997233,None,430.4040453999769,None,,,,,,,001,187,2019_Aug_24_0850,ninosDelConv2,3.1.5,60.49540900084874,
,,,10,0,150.0,30,,,,,0,48,48,14,,,,,,,,,,,,,,,,,,,,,,,,,,,,,,,,,,,,,,,,,,,,,,,,,,,,,,,,,,,,,,,,,,,,433.4204320999561,None,433.4204320999561,None,433.4204320999561,None,433.4204320999561,None,433.4204320999561,None,right,1,2.8579031999688596,433.9194237999618,None,436.8108673999086,None,,,,,,,001,187,2019_Aug_24_0850,ninosDelConv2,3.1.5,60.49540900084874,
,,,10,0,59.0,9,,,,,0,49,49,7,,,,,,,,,,,,,,,,,,,,,,,,,,,,,,,,,,,,,,,,,,,,,,,,,,,,,,,,,,,,,,,,,,,,439.8051145999925,None,439.8051145999925,None,439.8051145999925,None,439.8051145999925,None,439.8051145999925,None,left,1,7.136315100011416,440.3189958999865,None,447.4837982999161,None,,,,,,,001,187,2019_Aug_24_0850,ninosDelConv2,3.1.5,60.49540900084874,
,,,5,0,104.0,5,,,,,0,50,50,33,,,,,,,,,,,,,,,,,,,,,,,,,,,,,,,,,,,,,,,,,,,,,,,,,,,,,,,,,,,,,,,,,,,,450.50409649999347,None,450.50409649999347,None,450.50409649999347,None,450.50409649999347,None,450.50409649999347,None,right,1,5.440600700094365,451.0003905999474,None,456.4639117999468,None,,,,,,,001,187,2019_Aug_24_0850,ninosDelConv2,3.1.5,60.49540900084874,
,,,5,0,15.0,11,,,,,0,51,51,35,,,,,,,,,,,,,,,,,,,,,,,,,,,,,,,,,,,,,,,,,,,,,,,,,,,,,,,,,,,,,,,,,,,,459.48332749994006,None,459.48332749994006,None,459.48332749994006,None,459.48332749994006,None,459.48332749994006,None,right,0,5.809577899985015,459.9814109998988,None,465.82641079998575,None,,,,,,,001,187,2019_Aug_24_0850,ninosDelConv2,3.1.5,60.49540900084874,
,,,5,0,106.0,29,,,,,0,52,52,43,,,,,,,,,,,,,,,,,,,,,,,,,,,,,,,,,,,,,,,,,,,,,,,,,,,,,,,,,,,,,,,,,,,,468.8297753999941,None,468.8297753999941,None,468.8297753999941,None,468.8297753999941,None,468.8297753999941,None,left,1,1.6875497000291944,469.3301574999932,None,471.0554853999056,None,,,,,,,001,187,2019_Aug_24_0850,ninosDelConv2,3.1.5,60.49540900084874,
,,,10,0,20.0,59,,,,,0,53,53,15,,,,,,,,,,,,,,,,,,,,,,,,,,,,,,,,,,,,,,,,,,,,,,,,,,,,,,,,,,,,,,,,,,,,474.0677388999611,None,474.0677388999611,None,474.0677388999611,None,474.0677388999611,None,474.0677388999611,None,right,0,2.6436276000458747,474.5624368999852,None,477.22733799996786,None,,,,,,,001,187,2019_Aug_24_0850,ninosDelConv2,3.1.5,60.49540900084874,
,,,25,0,150.0,29,,,,,0,54,54,74,,,,,,,,,,,,,,,,,,,,,,,,,,,,,,,,,,,,,,,,,,,,,,,,,,,,,,,,,,,,,,,,,,,,480.2293789999094,None,480.2293789999094,None,480.2293789999094,None,480.2293789999094,None,480.2293789999094,None,left,1,3.012286699959077,480.74462449993007,None,483.784344799933,None,,,,,,,001,187,2019_Aug_24_0850,ninosDelConv2,3.1.5,60.49540900084874,
,,,5,0,14.0,31,,,,,0,55,55,40,,,,,,,,,,,,,,,,,,,,,,,,,,,,,,,,,,,,,,,,,,,,,,,,,,,,,,,,,,,,,,,,,,,,486.7977232999401,None,486.7977232999401,None,486.7977232999401,None,486.7977232999401,None,486.7977232999401,None,right,0,1.2243706999579445,487.29354789992794,None,488.55500739999115,None,,,,,,,001,187,2019_Aug_24_0850,ninosDelConv2,3.1.5,60.49540900084874,
,,,25,0,125.0,149,,,,,0,56,56,88,,,,,,,,,,,,,,,,,,,,,,,,,,,,,,,,,,,,,,,,,,,,,,,,,,,,,,,,,,,,,,,,,,,,491.56379869999364,None,491.56379869999364,None,491.56379869999364,None,491.56379869999364,None,491.56379869999364,None,left,0,4.755272799986415,492.05836179992184,None,496.84129139990546,None,,,,,,,001,187,2019_Aug_24_0850,ninosDelConv2,3.1.5,60.49540900084874,
,,,25,0,75.0,10,,,,,0,57,57,67,,,,,,,,,,,,,,,,,,,,,,,,,,,,,,,,,,,,,,,,,,,,,,,,,,,,,,,,,,,,,,,,,,,,499.8574288999662,None,499.8574288999662,None,499.8574288999662,None,499.8574288999662,None,499.8574288999662,None,left,1,0.8404976999154314,500.3575770999305,None,501.2331553999102,None,,,,,,,001,187,2019_Aug_24_0850,ninosDelConv2,3.1.5,60.49540900084874,
,,,25,0,35.0,150,,,,,0,58,58,85,,,,,,,,,,,,,,,,,,,,,,,,,,,,,,,,,,,,,,,,,,,,,,,,,,,,,,,,,,,,,,,,,,,,504.2388195999665,None,504.2388195999665,None,504.2388195999665,None,504.2388195999665,None,504.2388195999665,None,left,0,0.8040476000169292,504.740008499939,None,505.58354179991875,None,,,,,,,001,187,2019_Aug_24_0850,ninosDelConv2,3.1.5,60.49540900084874,
,,,10,0,151.0,151,,,,,0,59,59,29,,,,,,,,,,,,,,,,,,,,,,,,,,,,,,,,,,,,,,,,,,,,,,,,,,,,,,,,,,,,,,,,,,,,508.59404839994386,None,508.59404839994386,None,508.59404839994386,None,508.59404839994386,None,508.59404839994386,None,left,0,0.9142833000514656,509.08915539993905,None,510.0228604999138,None,,,,,,,001,187,2019_Aug_24_0850,ninosDelConv2,3.1.5,60.49540900084874,
,,,25,0,150.0,150,,,,,0,60,60,89,,,,,,,,,,,,,,,,,,,,,,,,,,,,,,,,,,,,,,,,,,,,,,,,,,,,,,,,,,,,,,,,,,,,513.0434243999189,None,513.0434243999189,None,513.0434243999189,None,513.0434243999189,None,513.0434243999189,None,left,0,0.8748056000331417,513.5383866999764,None,514.4379284000024,None,,,,,,,001,187,2019_Aug_24_0850,ninosDelConv2,3.1.5,60.49540900084874,
,,,10,0,149.0,89,,,,,0,61,61,24,,,,,,,,,,,,,,,,,,,,,,,,,,,,,,,,,,,,,,,,,,,,,,,,,,,,,,,,,,,,,,,,,,,,517.4610900999978,None,517.4610900999978,None,517.4610900999978,None,517.4610900999978,None,517.4610900999978,None,left,1,1.2792319000000134,517.954044599901,None,519.2524436999811,None,,,,,,,001,187,2019_Aug_24_0850,ninosDelConv2,3.1.5,60.49540900084874,
,,,25,0,125.0,9,,,,,0,62,62,68,,,,,,,,,,,,,,,,,,,,,,,,,,,,,,,,,,,,,,,,,,,,,,,,,,,,,,,,,,,,,,,,,,,,522.2525830999948,None,522.2525830999948,None,522.2525830999948,None,522.2525830999948,None,522.2525830999948,None,right,1,1.2060142999980599,522.7688946999842,None,524.0024633998983,None,,,,,,,001,187,2019_Aug_24_0850,ninosDelConv2,3.1.5,60.49540900084874,
,,,25,0,125.0,59,,,,,0,63,63,78,,,,,,,,,,,,,,,,,,,,,,,,,,,,,,,,,,,,,,,,,,,,,,,,,,,,,,,,,,,,,,,,,,,,527.0108356999699,None,527.0108356999699,None,527.0108356999699,None,527.0108356999699,None,527.0108356999699,None,right,1,0.6420153999933973,527.5191050999565,None,528.1855612999061,None,,,,,,,001,187,2019_Aug_24_0850,ninosDelConv2,3.1.5,60.49540900084874,
,,,25,0,55.0,90,,,,,0,64,64,81,,,,,,,,,,,,,,,,,,,,,,,,,,,,,,,,,,,,,,,,,,,,,,,,,,,,,,,,,,,,,,,,,,,,531.2003557999851,None,531.2003557999851,None,531.2003557999851,None,531.2003557999851,None,531.2003557999851,None,left,0,1.5822547000134364,531.7005385999801,None,533.3123261999572,None,,,,,,,001,187,2019_Aug_24_0850,ninosDelConv2,3.1.5,60.49540900084874,
,,,10,0,40.0,10,,,,,0,65,65,6,,,,,,,,,,,,,,,,,,,,,,,,,,,,,,,,,,,,,,,,,,,,,,,,,,,,,,,,,,,,,,,,,,,,536.3211975999875,None,536.3211975999875,None,536.3211975999875,None,536.3211975999875,None,536.3211975999875,None,left,0,0.5506948999827728,536.8172738999128,None,537.3837837999454,None,,,,,,,001,187,2019_Aug_24_0850,ninosDelConv2,3.1.5,60.49540900084874,
,,,10,0,150.0,5,,,,,0,66,66,4,,,,,,,,,,,,,,,,,,,,,,,,,,,,,,,,,,,,,,,,,,,,,,,,,,,,,,,,,,,,,,,,,,,,540.3992460999871,None,540.3992460999871,None,540.3992460999871,None,540.3992460999871,None,540.3992460999871,None,left,1,2.3396208999911323,540.8998997999588,None,543.2715716999955,None,,,,,,,001,187,2019_Aug_24_0850,ninosDelConv2,3.1.5,60.49540900084874,
,,,5,0,104.0,10,,,,,0,67,67,38,,,,,,,,,,,,,,,,,,,,,,,,,,,,,,,,,,,,,,,,,,,,,,,,,,,,,,,,,,,,,,,,,,,,546.2714086999185,None,546.2714086999185,None,546.2714086999185,None,546.2714086999185,None,546.2714086999185,None,right,1,1.1221195999532938,546.782046899898,None,547.9313591999235,None,,,,,,,001,187,2019_Aug_24_0850,ninosDelConv2,3.1.5,60.49540900084874,
,,,5,0,15.0,61,,,,,0,68,68,45,,,,,,,,,,,,,,,,,,,,,,,,,,,,,,,,,,,,,,,,,,,,,,,,,,,,,,,,,,,,,,,,,,,,550.9355811999412,None,550.9355811999412,None,550.9355811999412,None,550.9355811999412,None,550.9355811999412,None,left,0,1.1050922999856994,551.4478079999099,None,552.5818027999485,None,,,,,,,001,187,2019_Aug_24_0850,ninosDelConv2,3.1.5,60.49540900084874,
,,,5,0,56.0,89,,,,,0,69,69,52,,,,,,,,,,,,,,,,,,,,,,,,,,,,,,,,,,,,,,,,,,,,,,,,,,,,,,,,,,,,,,,,,,,,555.59669019992,None,555.59669019992,None,555.59669019992,None,555.59669019992,None,555.59669019992,None,left,0,1.2094108999008313,556.0967818999197,None,557.3292351999553,None,,,,,,,001,187,2019_Aug_24_0850,ninosDelConv2,3.1.5,60.49540900084874,
,,,10,0,61.0,4,,,,,0,70,70,2,,,,,,,,,,,,,,,,,,,,,,,,,,,,,,,,,,,,,,,,,,,,,,,,,,,,,,,,,,,,,,,,,,,,560.3508517999435,None,560.3508517999435,None,560.3508517999435,None,560.3508517999435,None,560.3508517999435,None,left,1,0.9469221000326797,560.8460554999765,None,561.8221631000051,None,,,,,,,001,187,2019_Aug_24_0850,ninosDelConv2,3.1.5,60.49540900084874,
,,,25,0,55.0,11,,,,,0,71,71,66,,,,,,,,,,,,,,,,,,,,,,,,,,,,,,,,,,,,,,,,,,,,,,,,,,,,,,,,,,,,,,,,,,,,564.8351971999509,None,564.8351971999509,None,564.8351971999509,None,564.8351971999509,None,564.8351971999509,None,right,1,1.1738997999345884,565.3285261999117,None,566.528027699911,None,,,,,,,001,187,2019_Aug_24_0850,ninosDelConv2,3.1.5,60.49540900084874,
,,,25,0,55.0,6,,,,,0,72,72,61,,,,,,,,,,,,,,,,,,,,,,,,,,,,,,,,,,,,,,,,,,,,,,,,,,,,,,,,,,,,,,,,,,,,569.5382089999039,None,569.5382089999039,None,569.5382089999039,None,569.5382089999039,None,569.5382089999039,None,left,1,1.178282699896954,570.0442801999161,None,571.2441726999823,None,,,,,,,001,187,2019_Aug_24_0850,ninosDelConv2,3.1.5,60.49540900084874,
,,,5,0,15.0,91,,,,,0,73,73,50,,,,,,,,,,,,,,,,,,,,,,,,,,,,,,,,,,,,,,,,,,,,,,,,,,,,,,,,,,,,,,,,,,,,574.2504287000047,None,574.2504287000047,None,574.2504287000047,None,574.2504287000047,None,574.2504287000047,None,right,0,3.732616399996914,574.7600422999822,None,578.5164795999881,None,,,,,,,001,187,2019_Aug_24_0850,ninosDelConv2,3.1.5,60.49540900084874,
,,,25,0,35.0,60,,,,,0,74,74,75,,,,,,,,,,,,,,,,,,,,,,,,,,,,,,,,,,,,,,,,,,,,,,,,,,,,,,,,,,,,,,,,,,,,581.5307347999187,None,581.5307347999187,None,581.5307347999187,None,581.5307347999187,None,581.5307347999187,None,left,0,1.8707573000574484,582.0245331999613,None,583.9237065999769,None,,,,,,,001,187,2019_Aug_24_0850,ninosDelConv2,3.1.5,60.49540900084874,
,,,5,0,35.0,150,,,,,0,75,75,56,,,,,,,,,,,,,,,,,,,,,,,,,,,,,,,,,,,,,,,,,,,,,,,,,,,,,,,,,,,,,,,,,,,,586.9233596998965,None,586.9233596998965,None,586.9233596998965,None,586.9233596998965,None,586.9233596998965,None,right,0,1.963870899984613,587.4396231999854,None,589.4227730999701,None,,,,,,,001,187,2019_Aug_24_0850,ninosDelConv2,3.1.5,60.49540900084874,
,,,5,0,35.0,31,,,,,0,76,76,41,,,,,,,,,,,,,,,,,,,,,,,,,,,,,,,,,,,,,,,,,,,,,,,,,,,,,,,,,,,,,,,,,,,,592.4337308999384,None,592.4337308999384,None,592.4337308999384,None,592.4337308999384,None,592.4337308999384,None,right,0,3.1374690000666305,592.9399997999426,None,596.1057250999147,None,,,,,,,001,187,2019_Aug_24_0850,ninosDelConv2,3.1.5,60.49540900084874,
,,,5,0,151.0,4,,,,,0,77,77,34,,,,,,,,,,,,,,,,,,,,,,,,,,,,,,,,,,,,,,,,,,,,,,,,,,,,,,,,,,,,,,,,,,,,599.1207471999805,None,599.1207471999805,None,599.1207471999805,None,599.1207471999805,None,599.1207471999805,None,right,1,1.1069125999929383,599.622037599911,None,600.7679475999903,None,,,,,,,001,187,2019_Aug_24_0850,ninosDelConv2,3.1.5,60.49540900084874,
,,,25,0,75.0,90,,,,,0,78,78,82,,,,,,,,,,,,,,,,,,,,,,,,,,,,,,,,,,,,,,,,,,,,,,,,,,,,,,,,,,,,,,,,,,,,603.7752483999357,None,603.7752483999357,None,603.7752483999357,None,603.7752483999357,None,603.7752483999357,None,left,0,8.859839399927296,604.2708325999556,None,613.1618022999028,None,,,,,,,001,187,2019_Aug_24_0850,ninosDelConv2,3.1.5,60.49540900084874,
,,,25,0,150.0,89,,,,,0,79,79,84,,,,,,,,,,,,,,,,,,,,,,,,,,,,,,,,,,,,,,,,,,,,,,,,,,,,,,,,,,,,,,,,,,,,616.1690415999619,None,616.1690415999619,None,616.1690415999619,None,616.1690415999619,None,616.1690415999619,None,left,0,2.193414799985476,616.6683584999992,None,618.8852463999065,None,,,,,,,001,187,2019_Aug_24_0850,ninosDelConv2,3.1.5,60.49540900084874,
,,,5,0,150.0,30,,,,,0,80,80,44,,,,,,,,,,,,,,,,,,,,,,,,,,,,,,,,,,,,,,,,,,,,,,,,,,,,,,,,,,,,,,,,,,,,621.8940863999305,None,621.8940863999305,None,621.8940863999305,None,621.8940863999305,None,621.8940863999305,None,right,0,0.7706935000605881,622.400557499961,None,623.1999616998946,None,,,,,,,001,187,2019_Aug_24_0850,ninosDelConv2,3.1.5,60.49540900084874,
,,,5,0,151.0,150,,,,,0,81,81,59,,,,,,,,,,,,,,,,,,,,,,,,,,,,,,,,,,,,,,,,,,,,,,,,,,,,,,,,,,,,,,,,,,,,626.2153194999555,None,626.2153194999555,None,626.2153194999555,None,626.2153194999555,None,626.2153194999555,None,left,0,1.2701080000260845,626.7170014999574,None,628.0162076998968,None,,,,,,,001,187,2019_Aug_24_0850,ninosDelConv2,3.1.5,60.49540900084874,
,,,5,0,105.0,60,,,,,0,82,82,48,,,,,,,,,,,,,,,,,,,,,,,,,,,,,,,,,,,,,,,,,,,,,,,,,,,,,,,,,,,,,,,,,,,,631.0337079999736,None,631.0337079999736,None,631.0337079999736,None,631.0337079999736,None,631.0337079999736,None,right,1,0.830655699945055,631.5315608999226,None,632.3905642000027,None,,,,,,,001,187,2019_Aug_24_0850,ninosDelConv2,3.1.5,60.49540900084874,
,,,10,0,111.0,30,,,,,0,83,83,13,,,,,,,,,,,,,,,,,,,,,,,,,,,,,,,,,,,,,,,,,,,,,,,,,,,,,,,,,,,,,,,,,,,,635.4039874000009,None,635.4039874000009,None,635.4039874000009,None,635.4039874000009,None,635.4039874000009,None,left,1,1.062377900001593,635.898524899967,None,636.9803410999011,None,,,,,,,001,187,2019_Aug_24_0850,ninosDelConv2,3.1.5,60.49540900084874,
,,,10,0,39.0,59,,,,,0,84,84,16,,,,,,,,,,,,,,,,,,,,,,,,,,,,,,,,,,,,,,,,,,,,,,,,,,,,,,,,,,,,,,,,,,,,639.9983645000029,None,639.9983645000029,None,639.9983645000029,None,639.9983645000029,None,639.9983645000029,None,left,0,0.7506945999339223,640.4959353999002,None,641.2749434999423,None,,,,,,,001,187,2019_Aug_24_0850,ninosDelConv2,3.1.5,60.49540900084874,
,,,5,0,35.0,6,,,,,0,85,85,31,,,,,,,,,,,,,,,,,,,,,,,,,,,,,,,,,,,,,,,,,,,,,,,,,,,,,,,,,,,,,,,,,,,,644.2849136999575,None,644.2849136999575,None,644.2849136999575,None,644.2849136999575,None,644.2849136999575,None,right,1,0.685109999962151,644.7790169999935,None,645.4888915999327,None,,,,,,,001,187,2019_Aug_24_0850,ninosDelConv2,3.1.5,60.49540900084874,
,,,10,0,61.0,89,,,,,0,86,86,22,,,,,,,,,,,,,,,,,,,,,,,,,,,,,,,,,,,,,,,,,,,,,,,,,,,,,,,,,,,,,,,,,,,,648.5019145999104,None,648.5019145999104,None,648.5019145999104,None,648.5019145999104,None,648.5019145999104,None,right,0,0.6869348000036553,648.9959738999605,None,649.7217564999592,None,,,,,,,001,187,2019_Aug_24_0850,ninosDelConv2,3.1.5,60.49540900084874,
,,,5,0,55.0,151,,,,,0,87,87,57,,,,,,,,,,,,,,,,,,,,,,,,,,,,,,,,,,,,,,,,,,,,,,,,,,,,,,,,,,,,,,,,,,,,652.7333303999621,None,652.7333303999621,None,652.7333303999621,None,652.7333303999621,None,652.7333303999621,None,right,0,0.6710742999566719,653.2283873999259,None,653.927383299917,None,,,,,,,001,187,2019_Aug_24_0850,ninosDelConv2,3.1.5,60.49540900084874,
,,,25,0,125.0,89,,,,,0,88,88,83,,,,,,,,,,,,,,,,,,,,,,,,,,,,,,,,,,,,,,,,,,,,,,,,,,,,,,,,,,,,,,,,,,,,656.9286486000055,None,656.9286486000055,None,656.9286486000055,None,656.9286486000055,None,656.9286486000055,None,left,0,2.845284799928777,657.4443518999033,None,660.3103409999749,None,,,,,,,001,187,2019_Aug_24_0850,ninosDelConv2,3.1.5,60.49540900084874,
,,,25,0,75.0,151,,,,,0,89,89,87,,,,,,,,,,,,,,,,,,,,,,,,,,,,,,,,,,,,,,,,,,,,,,,,,,,,,,,,,,,,,,,,,,,,663.3251733999932,None,663.3251733999932,None,663.3251733999932,None,663.3251733999932,None,663.3251733999932,None,right,0,4.472923099994659,663.825329199899,None,668.3253811999457,None,,,,,,,001,187,2019_Aug_24_0850,ninosDelConv2,3.1.5,60.49540900084874,
,,,,,,,,,,,,,,,,,,,,,,,,,,,,,,,,,,,,,,,,,,,,,,,,,,,,,,,,,,,,,,,,,,,,,,,,,,,,,,,,,,,,,,,,,,,,,,,,,,,671.3248663999839,None,right,1.302905600052327,671.3248663999839,None,001,187,2019_Aug_24_0850,ninosDelConv2,3.1.5,60.49540900084874,
