ssAmount,llAmount,llDelay,ss_am,ss_del,ll_am,ll_del,Practice.thisRepN,Practice.thisTrialN,Practice.thisN,Practice.thisIndex,trials.thisRepN,trials.thisTrialN,trials.thisN,trials.thisIndex,key1.keys,key1.rt,key2.keys,key2.rt,key2_2.keys,key2_2.rt,key2_3.keys,key2_3.rt,key3.keys,key3.rt,key4.keys,key4.rt,respP.keys,respP.corr,respP.rt,key5.keys,key5.rt,respT.keys,respT.corr,respT.rt,key_resp_4.keys,key_resp_4.rt,session,psychopyVersion,frameRate,expName,date,participant,Unnamed: 43
,,,,,,,,,,,,,,,space,15.0650558547,,,,,,,,,,,,,,,,,,,,,1,3.0.3,60.13388068322353,ninosDelConv2,2019_Aug_10_0955,245,
,,,,,,,,,,,,,,,,,space,7.19897826214,,,,,,,,,,,,,,,,,,,1,3.0.3,60.13388068322353,ninosDelConv2,2019_Aug_10_0955,245,
,,,,,,,,,,,,,,,,,,,space,3.46709604061,,,,,,,,,,,,,,,,,1,3.0.3,60.13388068322353,ninosDelConv2,2019_Aug_10_0955,245,
,,,,,,,,,,,,,,,,,,,,,space,2.9184342057,,,,,,,,,,,,,,,1,3.0.3,60.13388068322353,ninosDelConv2,2019_Aug_10_0955,245,
,,,,,,,,,,,,,,,,,,,,,,,right,6.2330385907,,,,,,,,,,,,,1,3.0.3,60.13388068322353,ninosDelConv2,2019_Aug_10_0955,245,
,,,,,,,,,,,,,,,,,,,,,,,,,space,2.03433740482,,,,,,,,,,,1,3.0.3,60.13388068322353,ninosDelConv2,2019_Aug_10_0955,245,
10.0,19.0,89.0,,,,,0.0,0.0,0.0,2.0,,,,,,,,,,,,,,,,,left,0.0,3.15072638693,,,,,,,,1,3.0.3,60.13388068322353,ninosDelConv2,2019_Aug_10_0955,245,
25.0,35.0,150.0,,,,,0.0,1.0,1.0,1.0,,,,,,,,,,,,,,,,,left,0.0,5.61834419449,,,,,,,,1,3.0.3,60.13388068322353,ninosDelConv2,2019_Aug_10_0955,245,
10.0,109.0,9.0,,,,,0.0,2.0,2.0,0.0,,,,,,,,,,,,,,,,,right,1.0,1.88382280897,,,,,,,,1,3.0.3,60.13388068322353,ninosDelConv2,2019_Aug_10_0955,245,
,,,,,,,,,,,,,,,,,,,,,,,,,,,,,,g,31.6616667858,,,,,,1,3.0.3,60.13388068322353,ninosDelConv2,2019_Aug_10_0955,245,
,,,25.0,0.0,55.0,11.0,,,,,0.0,0.0,0.0,66.0,,,,,,,,,,,,,,,,,,right,1.0,3.34964090609,,,1,3.0.3,60.13388068322353,ninosDelConv2,2019_Aug_10_0955,245,
,,,25.0,0.0,75.0,90.0,,,,,0.0,1.0,1.0,82.0,,,,,,,,,,,,,,,,,,right,0.0,5.40045483684,,,1,3.0.3,60.13388068322353,ninosDelConv2,2019_Aug_10_0955,245,
,,,10.0,0.0,110.0,90.0,,,,,0.0,2.0,2.0,23.0,,,,,,,,,,,,,,,,,,left,1.0,3.54867108789,,,1,3.0.3,60.13388068322353,ninosDelConv2,2019_Aug_10_0955,245,
,,,25.0,0.0,75.0,31.0,,,,,0.0,3.0,3.0,72.0,,,,,,,,,,,,,,,,,,left,1.0,4.41506945156,,,1,3.0.3,60.13388068322353,ninosDelConv2,2019_Aug_10_0955,245,
,,,10.0,0.0,60.0,29.0,,,,,0.0,4.0,4.0,12.0,,,,,,,,,,,,,,,,,,left,1.0,5.38317278505,,,1,3.0.3,60.13388068322353,ninosDelConv2,2019_Aug_10_0955,245,
,,,5.0,0.0,55.0,151.0,,,,,0.0,5.0,5.0,57.0,,,,,,,,,,,,,,,,,,right,1.0,1.59860803891,,,1,3.0.3,60.13388068322353,ninosDelConv2,2019_Aug_10_0955,245,
,,,5.0,0.0,56.0,89.0,,,,,0.0,6.0,6.0,52.0,,,,,,,,,,,,,,,,,,left,1.0,1.36759791354,,,1,3.0.3,60.13388068322353,ninosDelConv2,2019_Aug_10_0955,245,
,,,10.0,0.0,151.0,11.0,,,,,0.0,7.0,7.0,9.0,,,,,,,,,,,,,,,,,,left,1.0,1.46674082783,,,1,3.0.3,60.13388068322353,ninosDelConv2,2019_Aug_10_0955,245,
,,,10.0,0.0,109.0,149.0,,,,,0.0,8.0,8.0,28.0,,,,,,,,,,,,,,,,,,left,0.0,1.83328029985,,,1,3.0.3,60.13388068322353,ninosDelConv2,2019_Aug_10_0955,245,
,,,10.0,0.0,39.0,6.0,,,,,0.0,9.0,9.0,1.0,,,,,,,,,,,,,,,,,,right,1.0,0.817797444412,,,1,3.0.3,60.13388068322353,ninosDelConv2,2019_Aug_10_0955,245,
,,,10.0,0.0,61.0,150.0,,,,,0.0,10.0,10.0,27.0,,,,,,,,,,,,,,,,,,left,0.0,1.93315523007,,,1,3.0.3,60.13388068322353,ninosDelConv2,2019_Aug_10_0955,245,
,,,5.0,0.0,150.0,30.0,,,,,0.0,11.0,11.0,44.0,,,,,,,,,,,,,,,,,,left,1.0,4.76662213227,,,1,3.0.3,60.13388068322353,ninosDelConv2,2019_Aug_10_0955,245,
,,,5.0,0.0,149.0,10.0,,,,,0.0,12.0,12.0,39.0,,,,,,,,,,,,,,,,,,right,1.0,2.33383573749,,,1,3.0.3,60.13388068322353,ninosDelConv2,2019_Aug_10_0955,245,
,,,10.0,0.0,61.0,4.0,,,,,0.0,13.0,13.0,2.0,,,,,,,,,,,,,,,,,,left,1.0,1.66609486489,,,1,3.0.3,60.13388068322353,ninosDelConv2,2019_Aug_10_0955,245,
,,,25.0,0.0,35.0,5.0,,,,,0.0,14.0,14.0,60.0,,,,,,,,,,,,,,,,,,right,1.0,1.7669999635,,,1,3.0.3,60.13388068322353,ninosDelConv2,2019_Aug_10_0955,245,
,,,5.0,0.0,14.0,149.0,,,,,0.0,15.0,15.0,55.0,,,,,,,,,,,,,,,,,,right,0.0,2.16730572406,,,1,3.0.3,60.13388068322353,ninosDelConv2,2019_Aug_10_0955,245,
,,,5.0,0.0,151.0,4.0,,,,,0.0,16.0,16.0,34.0,,,,,,,,,,,,,,,,,,right,1.0,1.84945867321,,,1,3.0.3,60.13388068322353,ninosDelConv2,2019_Aug_10_0955,245,
,,,25.0,0.0,75.0,151.0,,,,,0.0,17.0,17.0,87.0,,,,,,,,,,,,,,,,,,right,0.0,8.21624540631,,,1,3.0.3,60.13388068322353,ninosDelConv2,2019_Aug_10_0955,245,
,,,5.0,0.0,150.0,90.0,,,,,0.0,18.0,18.0,54.0,,,,,,,,,,,,,,,,,,right,1.0,4.3008040351,,,1,3.0.3,60.13388068322353,ninosDelConv2,2019_Aug_10_0955,245,
,,,25.0,0.0,35.0,60.0,,,,,0.0,19.0,19.0,75.0,,,,,,,,,,,,,,,,,,left,0.0,4.80049688666,,,1,3.0.3,60.13388068322353,ninosDelConv2,2019_Aug_10_0955,245,
,,,10.0,0.0,59.0,9.0,,,,,0.0,20.0,20.0,7.0,,,,,,,,,,,,,,,,,,left,1.0,2.65047321434,,,1,3.0.3,60.13388068322353,ninosDelConv2,2019_Aug_10_0955,245,
,,,10.0,0.0,39.0,59.0,,,,,0.0,21.0,21.0,16.0,,,,,,,,,,,,,,,,,,right,0.0,3.24989500403,,,1,3.0.3,60.13388068322353,ninosDelConv2,2019_Aug_10_0955,245,
,,,25.0,0.0,150.0,61.0,,,,,0.0,22.0,22.0,79.0,,,,,,,,,,,,,,,,,,left,0.0,3.56594902719,,,1,3.0.3,60.13388068322353,ninosDelConv2,2019_Aug_10_0955,245,
,,,25.0,0.0,55.0,60.0,,,,,0.0,23.0,23.0,76.0,,,,,,,,,,,,,,,,,,right,1.0,1.4518090405,,,1,3.0.3,60.13388068322353,ninosDelConv2,2019_Aug_10_0955,245,
,,,10.0,0.0,21.0,31.0,,,,,0.0,24.0,24.0,10.0,,,,,,,,,,,,,,,,,,right,1.0,1.05125961738,,,1,3.0.3,60.13388068322353,ninosDelConv2,2019_Aug_10_0955,245,
,,,10.0,0.0,39.0,29.0,,,,,0.0,25.0,25.0,11.0,,,,,,,,,,,,,,,,,,right,1.0,4.49953606434,,,1,3.0.3,60.13388068322353,ninosDelConv2,2019_Aug_10_0955,245,
,,,25.0,0.0,75.0,59.0,,,,,0.0,26.0,26.0,77.0,,,,,,,,,,,,,,,,,,right,1.0,1.91721897706,,,1,3.0.3,60.13388068322353,ninosDelConv2,2019_Aug_10_0955,245,
,,,10.0,0.0,20.0,5.0,,,,,0.0,27.0,27.0,0.0,,,,,,,,,,,,,,,,,,left,1.0,2.65048760787,,,1,3.0.3,60.13388068322353,ninosDelConv2,2019_Aug_10_0955,245,
,,,5.0,0.0,104.0,5.0,,,,,0.0,28.0,28.0,33.0,,,,,,,,,,,,,,,,,,right,1.0,1.79990572209,,,1,3.0.3,60.13388068322353,ninosDelConv2,2019_Aug_10_0955,245,
,,,5.0,0.0,35.0,31.0,,,,,0.0,29.0,29.0,41.0,,,,,,,,,,,,,,,,,,left,1.0,1.38405850373,,,1,3.0.3,60.13388068322353,ninosDelConv2,2019_Aug_10_0955,245,
,,,5.0,0.0,106.0,29.0,,,,,0.0,30.0,30.0,43.0,,,,,,,,,,,,,,,,,,left,1.0,1.60028900235,,,1,3.0.3,60.13388068322353,ninosDelConv2,2019_Aug_10_0955,245,
,,,25.0,0.0,35.0,30.0,,,,,0.0,31.0,31.0,70.0,,,,,,,,,,,,,,,,,,left,0.0,1.83414494223,,,1,3.0.3,60.13388068322353,ninosDelConv2,2019_Aug_10_0955,245,
,,,25.0,0.0,150.0,4.0,,,,,0.0,32.0,32.0,64.0,,,,,,,,,,,,,,,,,,right,1.0,1.43277919799,,,1,3.0.3,60.13388068322353,ninosDelConv2,2019_Aug_10_0955,245,
,,,25.0,0.0,75.0,10.0,,,,,0.0,33.0,33.0,67.0,,,,,,,,,,,,,,,,,,right,1.0,1.63391649572,,,1,3.0.3,60.13388068322353,ninosDelConv2,2019_Aug_10_0955,245,
,,,5.0,0.0,105.0,60.0,,,,,0.0,34.0,34.0,48.0,,,,,,,,,,,,,,,,,,right,1.0,1.11696935148,,,1,3.0.3,60.13388068322353,ninosDelConv2,2019_Aug_10_0955,245,
,,,10.0,0.0,150.0,30.0,,,,,0.0,35.0,35.0,14.0,,,,,,,,,,,,,,,,,,left,1.0,2.71711236186,,,1,3.0.3,60.13388068322353,ninosDelConv2,2019_Aug_10_0955,245,
,,,25.0,0.0,125.0,31.0,,,,,0.0,36.0,36.0,73.0,,,,,,,,,,,,,,,,,,left,1.0,2.55110617162,,,1,3.0.3,60.13388068322353,ninosDelConv2,2019_Aug_10_0955,245,
,,,10.0,0.0,20.0,59.0,,,,,0.0,37.0,37.0,15.0,,,,,,,,,,,,,,,,,,right,1.0,3.51760307985,,,1,3.0.3,60.13388068322353,ninosDelConv2,2019_Aug_10_0955,245,
,,,5.0,0.0,15.0,61.0,,,,,0.0,38.0,38.0,45.0,,,,,,,,,,,,,,,,,,right,1.0,1.55032943282,,,1,3.0.3,60.13388068322353,ninosDelConv2,2019_Aug_10_0955,245,
,,,5.0,0.0,56.0,29.0,,,,,0.0,39.0,39.0,42.0,,,,,,,,,,,,,,,,,,left,1.0,1.75093314028,,,1,3.0.3,60.13388068322353,ninosDelConv2,2019_Aug_10_0955,245,
,,,25.0,0.0,125.0,9.0,,,,,0.0,40.0,40.0,68.0,,,,,,,,,,,,,,,,,,left,1.0,2.13396301778,,,1,3.0.3,60.13388068322353,ninosDelConv2,2019_Aug_10_0955,245,
,,,10.0,0.0,19.0,11.0,,,,,0.0,41.0,41.0,5.0,,,,,,,,,,,,,,,,,,right,1.0,1.85190300999,,,1,3.0.3,60.13388068322353,ninosDelConv2,2019_Aug_10_0955,245,
,,,10.0,0.0,61.0,89.0,,,,,0.0,42.0,42.0,22.0,,,,,,,,,,,,,,,,,,left,1.0,1.73398471094,,,1,3.0.3,60.13388068322353,ninosDelConv2,2019_Aug_10_0955,245,
,,,25.0,0.0,55.0,30.0,,,,,0.0,43.0,43.0,71.0,,,,,,,,,,,,,,,,,,right,1.0,1.55001431645,,,1,3.0.3,60.13388068322353,ninosDelConv2,2019_Aug_10_0955,245,
,,,10.0,0.0,151.0,151.0,,,,,0.0,44.0,44.0,29.0,,,,,,,,,,,,,,,,,,left,1.0,1.21591281198,,,1,3.0.3,60.13388068322353,ninosDelConv2,2019_Aug_10_0955,245,
,,,5.0,0.0,15.0,11.0,,,,,0.0,45.0,45.0,35.0,,,,,,,,,,,,,,,,,,left,1.0,0.734029947896,,,1,3.0.3,60.13388068322353,ninosDelConv2,2019_Aug_10_0955,245,
,,,5.0,0.0,14.0,31.0,,,,,0.0,46.0,46.0,40.0,,,,,,,,,,,,,,,,,,right,1.0,1.23278361885,,,1,3.0.3,60.13388068322353,ninosDelConv2,2019_Aug_10_0955,245,
,,,10.0,0.0,39.0,150.0,,,,,0.0,47.0,47.0,26.0,,,,,,,,,,,,,,,,,,left,1.0,2.10115544387,,,1,3.0.3,60.13388068322353,ninosDelConv2,2019_Aug_10_0955,245,
,,,25.0,0.0,125.0,4.0,,,,,0.0,48.0,48.0,63.0,,,,,,,,,,,,,,,,,,right,0.0,1.1668960214,,,1,3.0.3,60.13388068322353,ninosDelConv2,2019_Aug_10_0955,245,
,,,5.0,0.0,16.0,4.0,,,,,0.0,49.0,49.0,30.0,,,,,,,,,,,,,,,,,,right,0.0,2.21610352682,,,1,3.0.3,60.13388068322353,ninosDelConv2,2019_Aug_10_0955,245,
,,,25.0,0.0,35.0,11.0,,,,,0.0,50.0,50.0,65.0,,,,,,,,,,,,,,,,,,left,0.0,1.70141103258,,,1,3.0.3,60.13388068322353,ninosDelConv2,2019_Aug_10_0955,245,
,,,10.0,0.0,150.0,5.0,,,,,0.0,51.0,51.0,4.0,,,,,,,,,,,,,,,,,,left,1.0,2.43402372784,,,1,3.0.3,60.13388068322353,ninosDelConv2,2019_Aug_10_0955,245,
,,,25.0,0.0,125.0,149.0,,,,,0.0,52.0,52.0,88.0,,,,,,,,,,,,,,,,,,left,0.0,3.45028280799,,,1,3.0.3,60.13388068322353,ninosDelConv2,2019_Aug_10_0955,245,
,,,10.0,0.0,20.0,90.0,,,,,0.0,53.0,53.0,20.0,,,,,,,,,,,,,,,,,,left,0.0,1.78406251332,,,1,3.0.3,60.13388068322353,ninosDelConv2,2019_Aug_10_0955,245,
,,,5.0,0.0,104.0,10.0,,,,,0.0,54.0,54.0,38.0,,,,,,,,,,,,,,,,,,left,1.0,1.36797882913,,,1,3.0.3,60.13388068322353,ninosDelConv2,2019_Aug_10_0955,245,
,,,5.0,0.0,35.0,150.0,,,,,0.0,55.0,55.0,56.0,,,,,,,,,,,,,,,,,,right,1.0,2.65092095721,,,1,3.0.3,60.13388068322353,ninosDelConv2,2019_Aug_10_0955,245,
,,,5.0,0.0,56.0,9.0,,,,,0.0,56.0,56.0,37.0,,,,,,,,,,,,,,,,,,right,1.0,2.45099220535,,,1,3.0.3,60.13388068322353,ninosDelConv2,2019_Aug_10_0955,245,
,,,5.0,0.0,149.0,59.0,,,,,0.0,57.0,57.0,49.0,,,,,,,,,,,,,,,,,,left,1.0,9.18258912576,,,1,3.0.3,60.13388068322353,ninosDelConv2,2019_Aug_10_0955,245,
,,,10.0,0.0,149.0,89.0,,,,,0.0,58.0,58.0,24.0,,,,,,,,,,,,,,,,,,left,0.0,1.21614670753,,,1,3.0.3,60.13388068322353,ninosDelConv2,2019_Aug_10_0955,245,
,,,25.0,0.0,150.0,29.0,,,,,0.0,59.0,59.0,74.0,,,,,,,,,,,,,,,,,,right,1.0,1.21743236179,,,1,3.0.3,60.13388068322353,ninosDelConv2,2019_Aug_10_0955,245,
,,,10.0,0.0,40.0,91.0,,,,,0.0,60.0,60.0,21.0,,,,,,,,,,,,,,,,,,left,1.0,0.601371604484,,,1,3.0.3,60.13388068322353,ninosDelConv2,2019_Aug_10_0955,245,
,,,10.0,0.0,110.0,60.0,,,,,0.0,61.0,61.0,18.0,,,,,,,,,,,,,,,,,,left,1.0,0.485041224689,,,1,3.0.3,60.13388068322353,ninosDelConv2,2019_Aug_10_0955,245,
,,,25.0,0.0,55.0,90.0,,,,,0.0,62.0,62.0,81.0,,,,,,,,,,,,,,,,,,left,1.0,0.63476263202,,,1,3.0.3,60.13388068322353,ninosDelConv2,2019_Aug_10_0955,245,
,,,25.0,0.0,150.0,89.0,,,,,0.0,63.0,63.0,84.0,,,,,,,,,,,,,,,,,,left,1.0,0.649576186435,,,1,3.0.3,60.13388068322353,ninosDelConv2,2019_Aug_10_0955,245,
,,,25.0,0.0,35.0,150.0,,,,,0.0,64.0,64.0,85.0,,,,,,,,,,,,,,,,,,right,1.0,0.201008269622,,,1,3.0.3,60.13388068322353,ninosDelConv2,2019_Aug_10_0955,245,
,,,10.0,0.0,111.0,10.0,,,,,0.0,65.0,65.0,8.0,,,,,,,,,,,,,,,,,,right,1.0,0.684053414559,,,1,3.0.3,60.13388068322353,ninosDelConv2,2019_Aug_10_0955,245,
,,,25.0,0.0,125.0,59.0,,,,,0.0,66.0,66.0,78.0,,,,,,,,,,,,,,,,,,left,1.0,0.201319787593,,,1,3.0.3,60.13388068322353,ninosDelConv2,2019_Aug_10_0955,245,
,,,10.0,0.0,60.0,60.0,,,,,0.0,67.0,67.0,17.0,,,,,,,,,,,,,,,,,,right,1.0,0.116388982104,,,1,3.0.3,60.13388068322353,ninosDelConv2,2019_Aug_10_0955,245,
,,,10.0,0.0,111.0,30.0,,,,,0.0,68.0,68.0,13.0,,,,,,,,,,,,,,,,,,right,1.0,0.683843679668,,,1,3.0.3,60.13388068322353,ninosDelConv2,2019_Aug_10_0955,245,
,,,5.0,0.0,106.0,152.0,,,,,0.0,69.0,69.0,58.0,,,,,,,,,,,,,,,,,,right,1.0,0.118228788895,,,1,3.0.3,60.13388068322353,ninosDelConv2,2019_Aug_10_0955,245,
,,,25.0,0.0,55.0,151.0,,,,,0.0,70.0,70.0,86.0,,,,,,,,,,,,,,,,,,right,1.0,0.384793089819,,,1,3.0.3,60.13388068322353,ninosDelConv2,2019_Aug_10_0955,245,
,,,5.0,0.0,36.0,61.0,,,,,0.0,71.0,71.0,46.0,,,,,,,,,,,,,,,,,,right,1.0,0.500947662396,,,1,3.0.3,60.13388068322353,ninosDelConv2,2019_Aug_10_0955,245,
,,,25.0,0.0,150.0,9.0,,,,,0.0,72.0,72.0,69.0,,,,,,,,,,,,,,,,,,left,1.0,0.517522373004,,,1,3.0.3,60.13388068322353,ninosDelConv2,2019_Aug_10_0955,245,
,,,5.0,0.0,54.0,5.0,,,,,0.0,73.0,73.0,32.0,,,,,,,,,,,,,,,,,,left,1.0,0.266960638226,,,1,3.0.3,60.13388068322353,ninosDelConv2,2019_Aug_10_0955,245,
,,,5.0,0.0,36.0,9.0,,,,,0.0,74.0,74.0,36.0,,,,,,,,,,,,,,,,,,right,1.0,0.134974166111,,,1,3.0.3,60.13388068322353,ninosDelConv2,2019_Aug_10_0955,245,
,,,25.0,0.0,35.0,90.0,,,,,0.0,75.0,75.0,80.0,,,,,,,,,,,,,,,,,,left,1.0,0.117635568138,,,1,3.0.3,60.13388068322353,ninosDelConv2,2019_Aug_10_0955,245,
,,,5.0,0.0,15.0,91.0,,,,,0.0,76.0,76.0,50.0,,,,,,,,,,,,,,,,,,right,1.0,0.0341600555112,,,1,3.0.3,60.13388068322353,ninosDelConv2,2019_Aug_10_0955,245,
,,,5.0,0.0,104.0,90.0,,,,,0.0,77.0,77.0,53.0,,,,,,,,,,,,,,,,,,left,1.0,0.284110577602,,,1,3.0.3,60.13388068322353,ninosDelConv2,2019_Aug_10_0955,245,
,,,10.0,0.0,109.0,5.0,,,,,0.0,78.0,78.0,3.0,,,,,,,,,,,,,,,,,,left,1.0,0.583209488657,,,1,3.0.3,60.13388068322353,ninosDelConv2,2019_Aug_10_0955,245,
,,,25.0,0.0,125.0,89.0,,,,,0.0,79.0,79.0,83.0,,,,,,,,,,,,,,,,,,right,1.0,4.24967653019,,,1,3.0.3,60.13388068322353,ninosDelConv2,2019_Aug_10_0955,245,
,,,5.0,0.0,56.0,60.0,,,,,0.0,80.0,80.0,47.0,,,,,,,,,,,,,,,,,,left,1.0,0.634455226478,,,1,3.0.3,60.13388068322353,ninosDelConv2,2019_Aug_10_0955,245,
,,,25.0,0.0,150.0,150.0,,,,,0.0,81.0,81.0,89.0,,,,,,,,,,,,,,,,,,left,1.0,0.167549386621,,,1,3.0.3,60.13388068322353,ninosDelConv2,2019_Aug_10_0955,245,
,,,25.0,0.0,55.0,6.0,,,,,0.0,82.0,82.0,61.0,,,,,,,,,,,,,,,,,,right,1.0,0.183785848378,,,1,3.0.3,60.13388068322353,ninosDelConv2,2019_Aug_10_0955,245,
,,,25.0,0.0,75.0,5.0,,,,,0.0,83.0,83.0,62.0,,,,,,,,,,,,,,,,,,left,1.0,0.101601130504,,,1,3.0.3,60.13388068322353,ninosDelConv2,2019_Aug_10_0955,245,
,,,10.0,0.0,149.0,61.0,,,,,0.0,84.0,84.0,19.0,,,,,,,,,,,,,,,,,,left,1.0,0.39871835534,,,1,3.0.3,60.13388068322353,ninosDelConv2,2019_Aug_10_0955,245,
,,,5.0,0.0,35.0,6.0,,,,,0.0,85.0,85.0,31.0,,,,,,,,,,,,,,,,,,right,1.0,0.0842779542436,,,1,3.0.3,60.13388068322353,ninosDelConv2,2019_Aug_10_0955,245,
,,,10.0,0.0,40.0,10.0,,,,,0.0,86.0,86.0,6.0,,,,,,,,,,,,,,,,,,left,1.0,0.0339405535487,,,1,3.0.3,60.13388068322353,ninosDelConv2,2019_Aug_10_0955,245,
,,,10.0,0.0,10.01,150.0,,,,,0.0,87.0,87.0,25.0,,,,,,,,,,,,,,,,,,left,1.0,0.15139620204,,,1,3.0.3,60.13388068322353,ninosDelConv2,2019_Aug_10_0955,245,
,,,5.0,0.0,151.0,150.0,,,,,0.0,88.0,88.0,59.0,,,,,,,,,,,,,,,,,,right,1.0,0.10115390172,,,1,3.0.3,60.13388068322353,ninosDelConv2,2019_Aug_10_0955,245,
,,,5.0,0.0,35.0,89.0,,,,,0.0,89.0,89.0,51.0,,,,,,,,,,,,,,,,,,left,1.0,0.101483925711,,,1,3.0.3,60.13388068322353,ninosDelConv2,2019_Aug_10_0955,245,
,,,,,,,,,,,,,,,,,,,,,,,,,,,,,,,,,,,space,1.43401190446,1,3.0.3,60.13388068322353,ninosDelConv2,2019_Aug_10_0955,245,
