ssAmount,llAmount,llDelay,ss_am,ss_del,ll_am,ll_del,Practice.thisRepN,Practice.thisTrialN,Practice.thisN,Practice.thisIndex,trials.thisRepN,trials.thisTrialN,trials.thisN,trials.thisIndex,key1.keys,key1.rt,key2.keys,key2.rt,key2_2.keys,key2_2.rt,key2_3.keys,key2_3.rt,key3.keys,key3.rt,key4.keys,key4.rt,respP.keys,respP.corr,respP.rt,key5.keys,key5.rt,respT.keys,respT.corr,respT.rt,session,psychopyVersion,frameRate,expName,date,participant,Unnamed: 41
,,,,,,,,,,,,,,,space,7.06569890492,,,,,,,,,,,,,,,,,,,1,3.0.3,60.01406801947613,ninosDelConv2,2019_Aug_10_1001,281,
,,,,,,,,,,,,,,,,,space,11.3655656623,,,,,,,,,,,,,,,,,1,3.0.3,60.01406801947613,ninosDelConv2,2019_Aug_10_1001,281,
,,,,,,,,,,,,,,,,,,,space,3.76724014804,,,,,,,,,,,,,,,1,3.0.3,60.01406801947613,ninosDelConv2,2019_Aug_10_1001,281,
,,,,,,,,,,,,,,,,,,,,,space,4.01695407555,,,,,,,,,,,,,1,3.0.3,60.01406801947613,ninosDelConv2,2019_Aug_10_1001,281,
,,,,,,,,,,,,,,,,,,,,,,,right,7.59979005996,,,,,,,,,,,1,3.0.3,60.01406801947613,ninosDelConv2,2019_Aug_10_1001,281,
,,,,,,,,,,,,,,,,,,,,,,,,,space,2.1673287712,,,,,,,,,1,3.0.3,60.01406801947613,ninosDelConv2,2019_Aug_10_1001,281,
10.0,109.0,9.0,,,,,0.0,0.0,0.0,0.0,,,,,,,,,,,,,,,,,right,1.0,3.5176927736,,,,,,1,3.0.3,60.01406801947613,ninosDelConv2,2019_Aug_10_1001,281,
25.0,35.0,150.0,,,,,0.0,1.0,1.0,1.0,,,,,,,,,,,,,,,,,right,0.0,5.96673390549,,,,,,1,3.0.3,60.01406801947613,ninosDelConv2,2019_Aug_10_1001,281,
10.0,19.0,89.0,,,,,0.0,2.0,2.0,2.0,,,,,,,,,,,,,,,,,right,0.0,3.80049596075,,,,,,1,3.0.3,60.01406801947613,ninosDelConv2,2019_Aug_10_1001,281,
,,,,,,,,,,,,,,,,,,,,,,,,,,,,,,g,58.7234497871,,,,1,3.0.3,60.01406801947613,ninosDelConv2,2019_Aug_10_1001,281,
,,,25.0,0.0,75.0,151.0,,,,,0.0,0.0,0.0,87.0,,,,,,,,,,,,,,,,,,right,0.0,12.9975926764,1,3.0.3,60.01406801947613,ninosDelConv2,2019_Aug_10_1001,281,
,,,10.0,0.0,40.0,91.0,,,,,0.0,1.0,1.0,21.0,,,,,,,,,,,,,,,,,,right,1.0,4.39997758716,1,3.0.3,60.01406801947613,ninosDelConv2,2019_Aug_10_1001,281,
,,,5.0,0.0,14.0,31.0,,,,,0.0,2.0,2.0,40.0,,,,,,,,,,,,,,,,,,left,1.0,3.3326069722,1,3.0.3,60.01406801947613,ninosDelConv2,2019_Aug_10_1001,281,
,,,10.0,0.0,111.0,30.0,,,,,0.0,3.0,3.0,13.0,,,,,,,,,,,,,,,,,,right,1.0,2.53365986142,1,3.0.3,60.01406801947613,ninosDelConv2,2019_Aug_10_1001,281,
,,,25.0,0.0,150.0,61.0,,,,,0.0,4.0,4.0,79.0,,,,,,,,,,,,,,,,,,left,1.0,1.68410138413,1,3.0.3,60.01406801947613,ninosDelConv2,2019_Aug_10_1001,281,
,,,10.0,0.0,60.0,29.0,,,,,0.0,5.0,5.0,12.0,,,,,,,,,,,,,,,,,,left,1.0,1.53423714638,1,3.0.3,60.01406801947613,ninosDelConv2,2019_Aug_10_1001,281,
,,,5.0,0.0,36.0,61.0,,,,,0.0,6.0,6.0,46.0,,,,,,,,,,,,,,,,,,right,1.0,1.93311825208,1,3.0.3,60.01406801947613,ninosDelConv2,2019_Aug_10_1001,281,
,,,25.0,0.0,75.0,90.0,,,,,0.0,7.0,7.0,82.0,,,,,,,,,,,,,,,,,,right,1.0,6.99898371194,1,3.0.3,60.01406801947613,ninosDelConv2,2019_Aug_10_1001,281,
,,,10.0,0.0,150.0,5.0,,,,,0.0,8.0,8.0,4.0,,,,,,,,,,,,,,,,,,left,1.0,3.06724467035,1,3.0.3,60.01406801947613,ninosDelConv2,2019_Aug_10_1001,281,
,,,25.0,0.0,125.0,9.0,,,,,0.0,9.0,9.0,68.0,,,,,,,,,,,,,,,,,,left,1.0,1.73362449463,1,3.0.3,60.01406801947613,ninosDelConv2,2019_Aug_10_1001,281,
,,,10.0,0.0,19.0,11.0,,,,,0.0,10.0,10.0,5.0,,,,,,,,,,,,,,,,,,left,1.0,5.36501767859,1,3.0.3,60.01406801947613,ninosDelConv2,2019_Aug_10_1001,281,
,,,10.0,0.0,20.0,90.0,,,,,0.0,11.0,11.0,20.0,,,,,,,,,,,,,,,,,,left,0.0,5.04992304556,1,3.0.3,60.01406801947613,ninosDelConv2,2019_Aug_10_1001,281,
,,,10.0,0.0,109.0,5.0,,,,,0.0,12.0,12.0,3.0,,,,,,,,,,,,,,,,,,right,1.0,1.28359945957,1,3.0.3,60.01406801947613,ninosDelConv2,2019_Aug_10_1001,281,
,,,5.0,0.0,14.0,149.0,,,,,0.0,13.0,13.0,55.0,,,,,,,,,,,,,,,,,,left,0.0,1.85167844314,1,3.0.3,60.01406801947613,ninosDelConv2,2019_Aug_10_1001,281,
,,,10.0,0.0,109.0,149.0,,,,,0.0,14.0,14.0,28.0,,,,,,,,,,,,,,,,,,left,1.0,3.36659377348,1,3.0.3,60.01406801947613,ninosDelConv2,2019_Aug_10_1001,281,
,,,10.0,0.0,151.0,11.0,,,,,0.0,15.0,15.0,9.0,,,,,,,,,,,,,,,,,,left,1.0,1.20074496977,1,3.0.3,60.01406801947613,ninosDelConv2,2019_Aug_10_1001,281,
,,,25.0,0.0,35.0,150.0,,,,,0.0,16.0,16.0,85.0,,,,,,,,,,,,,,,,,,left,0.0,2.63485637773,1,3.0.3,60.01406801947613,ninosDelConv2,2019_Aug_10_1001,281,
,,,25.0,0.0,75.0,5.0,,,,,0.0,17.0,17.0,62.0,,,,,,,,,,,,,,,,,,left,1.0,1.2174810851,1,3.0.3,60.01406801947613,ninosDelConv2,2019_Aug_10_1001,281,
,,,25.0,0.0,35.0,90.0,,,,,0.0,18.0,18.0,80.0,,,,,,,,,,,,,,,,,,right,0.0,4.64949308988,1,3.0.3,60.01406801947613,ninosDelConv2,2019_Aug_10_1001,281,
,,,25.0,0.0,150.0,4.0,,,,,0.0,19.0,19.0,64.0,,,,,,,,,,,,,,,,,,right,1.0,1.68381608278,1,3.0.3,60.01406801947613,ninosDelConv2,2019_Aug_10_1001,281,
,,,25.0,0.0,150.0,89.0,,,,,0.0,20.0,20.0,84.0,,,,,,,,,,,,,,,,,,left,1.0,1.63289474137,1,3.0.3,60.01406801947613,ninosDelConv2,2019_Aug_10_1001,281,
,,,5.0,0.0,149.0,10.0,,,,,0.0,21.0,21.0,39.0,,,,,,,,,,,,,,,,,,right,1.0,0.883351993747,1,3.0.3,60.01406801947613,ninosDelConv2,2019_Aug_10_1001,281,
,,,10.0,0.0,60.0,60.0,,,,,0.0,22.0,22.0,17.0,,,,,,,,,,,,,,,,,,left,1.0,2.18345161714,1,3.0.3,60.01406801947613,ninosDelConv2,2019_Aug_10_1001,281,
,,,10.0,0.0,20.0,59.0,,,,,0.0,23.0,23.0,15.0,,,,,,,,,,,,,,,,,,right,0.0,2.85027404316,1,3.0.3,60.01406801947613,ninosDelConv2,2019_Aug_10_1001,281,
,,,5.0,0.0,149.0,59.0,,,,,0.0,24.0,24.0,49.0,,,,,,,,,,,,,,,,,,left,1.0,2.11517729331,1,3.0.3,60.01406801947613,ninosDelConv2,2019_Aug_10_1001,281,
,,,5.0,0.0,151.0,150.0,,,,,0.0,25.0,25.0,59.0,,,,,,,,,,,,,,,,,,left,1.0,2.60047272593,1,3.0.3,60.01406801947613,ninosDelConv2,2019_Aug_10_1001,281,
,,,5.0,0.0,151.0,4.0,,,,,0.0,26.0,26.0,34.0,,,,,,,,,,,,,,,,,,right,1.0,0.733929843642,1,3.0.3,60.01406801947613,ninosDelConv2,2019_Aug_10_1001,281,
,,,5.0,0.0,106.0,29.0,,,,,0.0,27.0,27.0,43.0,,,,,,,,,,,,,,,,,,right,1.0,2.51708773058,1,3.0.3,60.01406801947613,ninosDelConv2,2019_Aug_10_1001,281,
,,,10.0,0.0,150.0,30.0,,,,,0.0,28.0,28.0,14.0,,,,,,,,,,,,,,,,,,left,1.0,0.983480815776,1,3.0.3,60.01406801947613,ninosDelConv2,2019_Aug_10_1001,281,
,,,10.0,0.0,20.0,5.0,,,,,0.0,29.0,29.0,0.0,,,,,,,,,,,,,,,,,,left,1.0,1.01682658959,1,3.0.3,60.01406801947613,ninosDelConv2,2019_Aug_10_1001,281,
,,,5.0,0.0,56.0,9.0,,,,,0.0,30.0,30.0,37.0,,,,,,,,,,,,,,,,,,left,1.0,0.53270628769,1,3.0.3,60.01406801947613,ninosDelConv2,2019_Aug_10_1001,281,
,,,5.0,0.0,150.0,30.0,,,,,0.0,31.0,31.0,44.0,,,,,,,,,,,,,,,,,,left,1.0,0.366377870552,1,3.0.3,60.01406801947613,ninosDelConv2,2019_Aug_10_1001,281,
,,,5.0,0.0,150.0,90.0,,,,,0.0,32.0,32.0,54.0,,,,,,,,,,,,,,,,,,left,1.0,0.701060085557,1,3.0.3,60.01406801947613,ninosDelConv2,2019_Aug_10_1001,281,
,,,10.0,0.0,39.0,29.0,,,,,0.0,33.0,33.0,11.0,,,,,,,,,,,,,,,,,,left,1.0,1.40171663836,1,3.0.3,60.01406801947613,ninosDelConv2,2019_Aug_10_1001,281,
,,,25.0,0.0,125.0,149.0,,,,,0.0,34.0,34.0,88.0,,,,,,,,,,,,,,,,,,left,1.0,10.8164399164,1,3.0.3,60.01406801947613,ninosDelConv2,2019_Aug_10_1001,281,
,,,5.0,0.0,16.0,4.0,,,,,0.0,35.0,35.0,30.0,,,,,,,,,,,,,,,,,,left,1.0,1.2673758585,1,3.0.3,60.01406801947613,ninosDelConv2,2019_Aug_10_1001,281,
,,,5.0,0.0,106.0,152.0,,,,,0.0,36.0,36.0,58.0,,,,,,,,,,,,,,,,,,right,1.0,0.250906537287,1,3.0.3,60.01406801947613,ninosDelConv2,2019_Aug_10_1001,281,
,,,25.0,0.0,55.0,11.0,,,,,0.0,37.0,37.0,66.0,,,,,,,,,,,,,,,,,,left,1.0,0.366630786099,1,3.0.3,60.01406801947613,ninosDelConv2,2019_Aug_10_1001,281,
,,,5.0,0.0,56.0,29.0,,,,,0.0,38.0,38.0,42.0,,,,,,,,,,,,,,,,,,right,1.0,0.783342946321,1,3.0.3,60.01406801947613,ninosDelConv2,2019_Aug_10_1001,281,
,,,25.0,0.0,35.0,5.0,,,,,0.0,39.0,39.0,60.0,,,,,,,,,,,,,,,,,,left,1.0,0.46770547051,1,3.0.3,60.01406801947613,ninosDelConv2,2019_Aug_10_1001,281,
,,,5.0,0.0,105.0,60.0,,,,,0.0,40.0,40.0,48.0,,,,,,,,,,,,,,,,,,right,1.0,0.550780490972,1,3.0.3,60.01406801947613,ninosDelConv2,2019_Aug_10_1001,281,
,,,10.0,0.0,110.0,60.0,,,,,0.0,41.0,41.0,18.0,,,,,,,,,,,,,,,,,,left,1.0,0.417114666663,1,3.0.3,60.01406801947613,ninosDelConv2,2019_Aug_10_1001,281,
,,,5.0,0.0,15.0,61.0,,,,,0.0,42.0,42.0,45.0,,,,,,,,,,,,,,,,,,left,1.0,0.767474557273,1,3.0.3,60.01406801947613,ninosDelConv2,2019_Aug_10_1001,281,
,,,25.0,0.0,150.0,150.0,,,,,0.0,43.0,43.0,89.0,,,,,,,,,,,,,,,,,,left,1.0,1.95064087305,1,3.0.3,60.01406801947613,ninosDelConv2,2019_Aug_10_1001,281,
,,,25.0,0.0,55.0,6.0,,,,,0.0,44.0,44.0,61.0,,,,,,,,,,,,,,,,,,right,1.0,1.48365199659,1,3.0.3,60.01406801947613,ninosDelConv2,2019_Aug_10_1001,281,
,,,10.0,0.0,151.0,151.0,,,,,0.0,45.0,45.0,29.0,,,,,,,,,,,,,,,,,,left,1.0,0.434749350883,1,3.0.3,60.01406801947613,ninosDelConv2,2019_Aug_10_1001,281,
,,,25.0,0.0,75.0,10.0,,,,,0.0,46.0,46.0,67.0,,,,,,,,,,,,,,,,,,left,1.0,0.633859623224,1,3.0.3,60.01406801947613,ninosDelConv2,2019_Aug_10_1001,281,
,,,5.0,0.0,35.0,31.0,,,,,0.0,47.0,47.0,41.0,,,,,,,,,,,,,,,,,,right,1.0,0.35159054026,1,3.0.3,60.01406801947613,ninosDelConv2,2019_Aug_10_1001,281,
,,,5.0,0.0,15.0,91.0,,,,,0.0,48.0,48.0,50.0,,,,,,,,,,,,,,,,,,left,1.0,0.633970659226,1,3.0.3,60.01406801947613,ninosDelConv2,2019_Aug_10_1001,281,
,,,25.0,0.0,125.0,59.0,,,,,0.0,49.0,49.0,78.0,,,,,,,,,,,,,,,,,,left,1.0,0.834521831013,1,3.0.3,60.01406801947613,ninosDelConv2,2019_Aug_10_1001,281,
,,,25.0,0.0,55.0,90.0,,,,,0.0,50.0,50.0,81.0,,,,,,,,,,,,,,,,,,left,1.0,0.769142154604,1,3.0.3,60.01406801947613,ninosDelConv2,2019_Aug_10_1001,281,
,,,25.0,0.0,125.0,4.0,,,,,0.0,51.0,51.0,63.0,,,,,,,,,,,,,,,,,,left,1.0,2.61689115409,1,3.0.3,60.01406801947613,ninosDelConv2,2019_Aug_10_1001,281,
,,,5.0,0.0,35.0,6.0,,,,,0.0,52.0,52.0,31.0,,,,,,,,,,,,,,,,,,right,1.0,0.551040088758,1,3.0.3,60.01406801947613,ninosDelConv2,2019_Aug_10_1001,281,
,,,10.0,0.0,149.0,61.0,,,,,0.0,53.0,53.0,19.0,,,,,,,,,,,,,,,,,,left,1.0,1.13319494948,1,3.0.3,60.01406801947613,ninosDelConv2,2019_Aug_10_1001,281,
,,,10.0,0.0,111.0,10.0,,,,,0.0,54.0,54.0,8.0,,,,,,,,,,,,,,,,,,right,1.0,0.483776398003,1,3.0.3,60.01406801947613,ninosDelConv2,2019_Aug_10_1001,281,
,,,5.0,0.0,56.0,60.0,,,,,0.0,55.0,55.0,47.0,,,,,,,,,,,,,,,,,,left,1.0,0.383588459343,1,3.0.3,60.01406801947613,ninosDelConv2,2019_Aug_10_1001,281,
,,,5.0,0.0,55.0,151.0,,,,,0.0,56.0,56.0,57.0,,,,,,,,,,,,,,,,,,left,1.0,0.35076805111,1,3.0.3,60.01406801947613,ninosDelConv2,2019_Aug_10_1001,281,
,,,5.0,0.0,56.0,89.0,,,,,0.0,57.0,57.0,52.0,,,,,,,,,,,,,,,,,,right,1.0,0.350314653479,1,3.0.3,60.01406801947613,ninosDelConv2,2019_Aug_10_1001,281,
,,,10.0,0.0,10.01,150.0,,,,,0.0,58.0,58.0,25.0,,,,,,,,,,,,,,,,,,right,0.0,1.1514336504,1,3.0.3,60.01406801947613,ninosDelConv2,2019_Aug_10_1001,281,
,,,5.0,0.0,104.0,5.0,,,,,0.0,59.0,59.0,33.0,,,,,,,,,,,,,,,,,,right,1.0,0.784536583349,1,3.0.3,60.01406801947613,ninosDelConv2,2019_Aug_10_1001,281,
,,,10.0,0.0,39.0,150.0,,,,,0.0,60.0,60.0,26.0,,,,,,,,,,,,,,,,,,right,1.0,0.883579205722,1,3.0.3,60.01406801947613,ninosDelConv2,2019_Aug_10_1001,281,
,,,10.0,0.0,61.0,150.0,,,,,0.0,61.0,61.0,27.0,,,,,,,,,,,,,,,,,,right,1.0,2.88298392948,1,3.0.3,60.01406801947613,ninosDelConv2,2019_Aug_10_1001,281,
,,,10.0,0.0,39.0,59.0,,,,,0.0,62.0,62.0,16.0,,,,,,,,,,,,,,,,,,right,1.0,0.751186697744,1,3.0.3,60.01406801947613,ninosDelConv2,2019_Aug_10_1001,281,
,,,25.0,0.0,125.0,89.0,,,,,0.0,63.0,63.0,83.0,,,,,,,,,,,,,,,,,,right,1.0,0.665170764551,1,3.0.3,60.01406801947613,ninosDelConv2,2019_Aug_10_1001,281,
,,,25.0,0.0,75.0,59.0,,,,,0.0,64.0,64.0,77.0,,,,,,,,,,,,,,,,,,right,1.0,0.566559948958,1,3.0.3,60.01406801947613,ninosDelConv2,2019_Aug_10_1001,281,
,,,5.0,0.0,104.0,90.0,,,,,0.0,65.0,65.0,53.0,,,,,,,,,,,,,,,,,,left,1.0,0.532979251817,1,3.0.3,60.01406801947613,ninosDelConv2,2019_Aug_10_1001,281,
,,,25.0,0.0,150.0,9.0,,,,,0.0,66.0,66.0,69.0,,,,,,,,,,,,,,,,,,left,1.0,0.834639549255,1,3.0.3,60.01406801947613,ninosDelConv2,2019_Aug_10_1001,281,
,,,10.0,0.0,61.0,89.0,,,,,0.0,67.0,67.0,22.0,,,,,,,,,,,,,,,,,,left,1.0,0.367707218975,1,3.0.3,60.01406801947613,ninosDelConv2,2019_Aug_10_1001,281,
,,,10.0,0.0,61.0,4.0,,,,,0.0,68.0,68.0,2.0,,,,,,,,,,,,,,,,,,left,1.0,0.367611090653,1,3.0.3,60.01406801947613,ninosDelConv2,2019_Aug_10_1001,281,
,,,10.0,0.0,40.0,10.0,,,,,0.0,69.0,69.0,6.0,,,,,,,,,,,,,,,,,,left,1.0,0.501710263081,1,3.0.3,60.01406801947613,ninosDelConv2,2019_Aug_10_1001,281,
,,,10.0,0.0,39.0,6.0,,,,,0.0,70.0,70.0,1.0,,,,,,,,,,,,,,,,,,right,1.0,5.56679949816,1,3.0.3,60.01406801947613,ninosDelConv2,2019_Aug_10_1001,281,
,,,25.0,0.0,35.0,11.0,,,,,0.0,71.0,71.0,65.0,,,,,,,,,,,,,,,,,,left,1.0,0.933830219321,1,3.0.3,60.01406801947613,ninosDelConv2,2019_Aug_10_1001,281,
,,,25.0,0.0,35.0,30.0,,,,,0.0,72.0,72.0,70.0,,,,,,,,,,,,,,,,,,right,1.0,1.38421920594,1,3.0.3,60.01406801947613,ninosDelConv2,2019_Aug_10_1001,281,
,,,10.0,0.0,21.0,31.0,,,,,0.0,73.0,73.0,10.0,,,,,,,,,,,,,,,,,,left,1.0,0.450624423102,1,3.0.3,60.01406801947613,ninosDelConv2,2019_Aug_10_1001,281,
,,,5.0,0.0,104.0,10.0,,,,,0.0,74.0,74.0,38.0,,,,,,,,,,,,,,,,,,left,1.0,4.35075365752,1,3.0.3,60.01406801947613,ninosDelConv2,2019_Aug_10_1001,281,
,,,10.0,0.0,149.0,89.0,,,,,0.0,75.0,75.0,24.0,,,,,,,,,,,,,,,,,,right,1.0,1.7838719096,1,3.0.3,60.01406801947613,ninosDelConv2,2019_Aug_10_1001,281,
,,,25.0,0.0,75.0,31.0,,,,,0.0,76.0,76.0,72.0,,,,,,,,,,,,,,,,,,right,1.0,1.53353546094,1,3.0.3,60.01406801947613,ninosDelConv2,2019_Aug_10_1001,281,
,,,5.0,0.0,54.0,5.0,,,,,0.0,77.0,77.0,32.0,,,,,,,,,,,,,,,,,,right,1.0,0.484365506098,1,3.0.3,60.01406801947613,ninosDelConv2,2019_Aug_10_1001,281,
,,,5.0,0.0,36.0,9.0,,,,,0.0,78.0,78.0,36.0,,,,,,,,,,,,,,,,,,right,1.0,0.499508048408,1,3.0.3,60.01406801947613,ninosDelConv2,2019_Aug_10_1001,281,
,,,5.0,0.0,35.0,150.0,,,,,0.0,79.0,79.0,56.0,,,,,,,,,,,,,,,,,,left,1.0,1.35015323944,1,3.0.3,60.01406801947613,ninosDelConv2,2019_Aug_10_1001,281,
,,,25.0,0.0,55.0,30.0,,,,,0.0,80.0,80.0,71.0,,,,,,,,,,,,,,,,,,left,1.0,0.316986872815,1,3.0.3,60.01406801947613,ninosDelConv2,2019_Aug_10_1001,281,
,,,5.0,0.0,35.0,89.0,,,,,0.0,81.0,81.0,51.0,,,,,,,,,,,,,,,,,,left,1.0,0.933494540863,1,3.0.3,60.01406801947613,ninosDelConv2,2019_Aug_10_1001,281,
,,,5.0,0.0,15.0,11.0,,,,,0.0,82.0,82.0,35.0,,,,,,,,,,,,,,,,,,right,1.0,3.29852558486,1,3.0.3,60.01406801947613,ninosDelConv2,2019_Aug_10_1001,281,
,,,10.0,0.0,110.0,90.0,,,,,0.0,83.0,83.0,23.0,,,,,,,,,,,,,,,,,,left,1.0,0.284187026322,1,3.0.3,60.01406801947613,ninosDelConv2,2019_Aug_10_1001,281,
,,,25.0,0.0,150.0,29.0,,,,,0.0,84.0,84.0,74.0,,,,,,,,,,,,,,,,,,right,1.0,0.351272854023,1,3.0.3,60.01406801947613,ninosDelConv2,2019_Aug_10_1001,281,
,,,25.0,0.0,35.0,60.0,,,,,0.0,85.0,85.0,75.0,,,,,,,,,,,,,,,,,,right,1.0,0.46688657999,1,3.0.3,60.01406801947613,ninosDelConv2,2019_Aug_10_1001,281,
,,,25.0,0.0,55.0,151.0,,,,,0.0,86.0,86.0,86.0,,,,,,,,,,,,,,,,,,right,1.0,1.81613148283,1,3.0.3,60.01406801947613,ninosDelConv2,2019_Aug_10_1001,281,
,,,25.0,0.0,125.0,31.0,,,,,0.0,87.0,87.0,73.0,,,,,,,,,,,,,,,,,,right,1.0,0.200041741133,1,3.0.3,60.01406801947613,ninosDelConv2,2019_Aug_10_1001,281,
,,,10.0,0.0,59.0,9.0,,,,,0.0,88.0,88.0,7.0,,,,,,,,,,,,,,,,,,right,1.0,5.74966560677,1,3.0.3,60.01406801947613,ninosDelConv2,2019_Aug_10_1001,281,
,,,25.0,0.0,55.0,60.0,,,,,0.0,89.0,89.0,76.0,,,,,,,,,,,,,,,,,,right,1.0,1.00007248204,1,3.0.3,60.01406801947613,ninosDelConv2,2019_Aug_10_1001,281,
