key1.keys,key1.rt,key2.keys,key2.rt,key2_2.keys,key2_2.rt,key2_3.keys,key2_3.rt,key3.keys,key3.rt,key4.keys,key4.rt,respP.keys,respP.corr,respP.rt,Practice.thisRepN,Practice.thisTrialN,Practice.thisN,Practice.thisIndex,Practice.ran,ssAmount,llAmount,llDelay,session,participant,date,expName,psychopyVersion,OS,frameRate,key5.keys,key5.rt,respT.keys,respT.corr,respT.rt,trials.thisRepN,trials.thisTrialN,trials.thisN,trials.thisIndex,trials.ran,ss_am,ss_del,ll_am,ll_del
space,8.0042,space,23.6629,space,0.6675,space,0.0834,left,11.1246,space,3.7466,left,0.0,9.8668,0.0,0.0,0.0,2.0,1.0,10000.0,19000.0,89.0,25-07-2022,319,2022-07-25_07h53.57.858,tareaTDv3,2020.2.5,Win32,60,,,,,,,,,,,,,,
,,,,,,,,,,,,left,0.0,3.2399,0.0,1.0,1.0,1.0,1.0,25000.0,35000.0,150.0,25-07-2022,319,2022-07-25_07h53.57.858,tareaTDv3,2020.2.5,Win32,60,,,,,,,,,,,,,,
,,,,,,,,,,,,right,1.0,4.4926,0.0,2.0,2.0,0.0,1.0,10000.0,109000.0,9.0,25-07-2022,319,2022-07-25_07h53.57.858,tareaTDv3,2020.2.5,Win32,60,,,,,,,,,,,,,,
,,,,,,,,,,,,,,,,,,,,,,,25-07-2022,319,2022-07-25_07h53.57.858,tareaTDv3,2020.2.5,Win32,60,g,5.4945,right,0.0,5.0954,0.0,0.0,0.0,75.0,1.0,25000.0,0.0,35000.0,60.0
,,,,,,,,,,,,,,,,,,,,,,,25-07-2022,319,2022-07-25_07h53.57.858,tareaTDv3,2020.2.5,Win32,60,,,left,1.0,2.9421,0.0,1.0,1.0,31.0,1.0,5000.0,0.0,35000.0,6.0
,,,,,,,,,,,,,,,,,,,,,,,25-07-2022,319,2022-07-25_07h53.57.858,tareaTDv3,2020.2.5,Win32,60,,,right,1.0,1.6191,0.0,2.0,2.0,4.0,1.0,10000.0,0.0,150000.0,5.0
,,,,,,,,,,,,,,,,,,,,,,,25-07-2022,319,2022-07-25_07h53.57.858,tareaTDv3,2020.2.5,Win32,60,,,left,0.0,3.0119,0.0,3.0,3.0,26.0,1.0,10000.0,0.0,39000.0,150.0
,,,,,,,,,,,,,,,,,,,,,,,25-07-2022,319,2022-07-25_07h53.57.858,tareaTDv3,2020.2.5,Win32,60,,,right,0.0,4.0628,0.0,4.0,4.0,5.0,1.0,10000.0,0.0,19000.0,11.0
,,,,,,,,,,,,,,,,,,,,,,,25-07-2022,319,2022-07-25_07h53.57.858,tareaTDv3,2020.2.5,Win32,60,,,right,0.0,1.7863,0.0,5.0,5.0,86.0,1.0,25000.0,0.0,55000.0,151.0
,,,,,,,,,,,,,,,,,,,,,,,25-07-2022,319,2022-07-25_07h53.57.858,tareaTDv3,2020.2.5,Win32,60,,,left,1.0,7.0038,0.0,6.0,6.0,8.0,1.0,10000.0,0.0,111000.0,10.0
,,,,,,,,,,,,,,,,,,,,,,,25-07-2022,319,2022-07-25_07h53.57.858,tareaTDv3,2020.2.5,Win32,60,,,right,1.0,7.7188,0.0,7.0,7.0,16.0,1.0,10000.0,0.0,39000.0,59.0
,,,,,,,,,,,,,,,,,,,,,,,25-07-2022,319,2022-07-25_07h53.57.858,tareaTDv3,2020.2.5,Win32,60,,,right,0.0,2.1909,0.0,8.0,8.0,80.0,1.0,25000.0,0.0,35000.0,90.0
,,,,,,,,,,,,,,,,,,,,,,,25-07-2022,319,2022-07-25_07h53.57.858,tareaTDv3,2020.2.5,Win32,60,,,right,1.0,3.7478,0.0,9.0,9.0,12.0,1.0,10000.0,0.0,60000.0,29.0
,,,,,,,,,,,,,,,,,,,,,,,25-07-2022,319,2022-07-25_07h53.57.858,tareaTDv3,2020.2.5,Win32,60,,,right,1.0,15.2998,0.0,10.0,10.0,43.0,1.0,5000.0,0.0,106000.0,29.0
,,,,,,,,,,,,,,,,,,,,,,,25-07-2022,319,2022-07-25_07h53.57.858,tareaTDv3,2020.2.5,Win32,60,,,right,1.0,9.4206,0.0,11.0,11.0,62.0,1.0,25000.0,0.0,75000.0,5.0
,,,,,,,,,,,,,,,,,,,,,,,25-07-2022,319,2022-07-25_07h53.57.858,tareaTDv3,2020.2.5,Win32,60,,,left,1.0,1.3352,0.0,12.0,12.0,61.0,1.0,25000.0,0.0,55000.0,6.0
,,,,,,,,,,,,,,,,,,,,,,,25-07-2022,319,2022-07-25_07h53.57.858,tareaTDv3,2020.2.5,Win32,60,,,left,1.0,4.791,0.0,13.0,13.0,18.0,1.0,10000.0,0.0,110000.0,60.0
,,,,,,,,,,,,,,,,,,,,,,,25-07-2022,319,2022-07-25_07h53.57.858,tareaTDv3,2020.2.5,Win32,60,,,right,1.0,1.7434,0.0,14.0,14.0,44.0,1.0,5000.0,0.0,150000.0,30.0
,,,,,,,,,,,,,,,,,,,,,,,25-07-2022,319,2022-07-25_07h53.57.858,tareaTDv3,2020.2.5,Win32,60,,,left,1.0,2.499,0.0,15.0,15.0,34.0,1.0,5000.0,0.0,151000.0,4.0
,,,,,,,,,,,,,,,,,,,,,,,25-07-2022,319,2022-07-25_07h53.57.858,tareaTDv3,2020.2.5,Win32,60,,,left,1.0,5.5704,0.0,16.0,16.0,52.0,1.0,5000.0,0.0,56000.0,89.0
,,,,,,,,,,,,,,,,,,,,,,,25-07-2022,319,2022-07-25_07h53.57.858,tareaTDv3,2020.2.5,Win32,60,,,right,1.0,1.0262,0.0,17.0,17.0,67.0,1.0,25000.0,0.0,75000.0,10.0
,,,,,,,,,,,,,,,,,,,,,,,25-07-2022,319,2022-07-25_07h53.57.858,tareaTDv3,2020.2.5,Win32,60,,,left,0.0,1.6175,0.0,18.0,18.0,27.0,1.0,10000.0,0.0,61000.0,150.0
,,,,,,,,,,,,,,,,,,,,,,,25-07-2022,319,2022-07-25_07h53.57.858,tareaTDv3,2020.2.5,Win32,60,,,left,1.0,2.4647,0.0,19.0,19.0,48.0,1.0,5000.0,0.0,105000.0,60.0
,,,,,,,,,,,,,,,,,,,,,,,25-07-2022,319,2022-07-25_07h53.57.858,tareaTDv3,2020.2.5,Win32,60,,,left,1.0,2.6168,0.0,20.0,20.0,47.0,1.0,5000.0,0.0,56000.0,60.0
,,,,,,,,,,,,,,,,,,,,,,,25-07-2022,319,2022-07-25_07h53.57.858,tareaTDv3,2020.2.5,Win32,60,,,right,1.0,11.2201,0.0,21.0,21.0,79.0,1.0,25000.0,0.0,150000.0,61.0
,,,,,,,,,,,,,,,,,,,,,,,25-07-2022,319,2022-07-25_07h53.57.858,tareaTDv3,2020.2.5,Win32,60,,,left,1.0,1.1585,0.0,22.0,22.0,69.0,1.0,25000.0,0.0,150000.0,9.0
,,,,,,,,,,,,,,,,,,,,,,,25-07-2022,319,2022-07-25_07h53.57.858,tareaTDv3,2020.2.5,Win32,60,,,right,1.0,11.8145,0.0,23.0,23.0,45.0,1.0,5000.0,0.0,15000.0,61.0
,,,,,,,,,,,,,,,,,,,,,,,25-07-2022,319,2022-07-25_07h53.57.858,tareaTDv3,2020.2.5,Win32,60,,,left,1.0,5.5955,0.0,24.0,24.0,66.0,1.0,25000.0,0.0,55000.0,11.0
,,,,,,,,,,,,,,,,,,,,,,,25-07-2022,319,2022-07-25_07h53.57.858,tareaTDv3,2020.2.5,Win32,60,,,right,1.0,3.9773,0.0,25.0,25.0,39.0,1.0,5000.0,0.0,149000.0,10.0
,,,,,,,,,,,,,,,,,,,,,,,25-07-2022,319,2022-07-25_07h53.57.858,tareaTDv3,2020.2.5,Win32,60,,,right,1.0,2.9322,0.0,26.0,26.0,76.0,1.0,25000.0,0.0,55000.0,60.0
,,,,,,,,,,,,,,,,,,,,,,,25-07-2022,319,2022-07-25_07h53.57.858,tareaTDv3,2020.2.5,Win32,60,,,left,1.0,3.2251,0.0,27.0,27.0,63.0,1.0,25000.0,0.0,125000.0,4.0
,,,,,,,,,,,,,,,,,,,,,,,25-07-2022,319,2022-07-25_07h53.57.858,tareaTDv3,2020.2.5,Win32,60,,,left,1.0,0.8299,0.0,28.0,28.0,74.0,1.0,25000.0,0.0,150000.0,29.0
,,,,,,,,,,,,,,,,,,,,,,,25-07-2022,319,2022-07-25_07h53.57.858,tareaTDv3,2020.2.5,Win32,60,,,right,1.0,1.5513,0.0,29.0,29.0,11.0,1.0,10000.0,0.0,39000.0,29.0
,,,,,,,,,,,,,,,,,,,,,,,25-07-2022,319,2022-07-25_07h53.57.858,tareaTDv3,2020.2.5,Win32,60,,,left,1.0,0.9501,0.0,30.0,30.0,19.0,1.0,10000.0,0.0,149000.0,61.0
,,,,,,,,,,,,,,,,,,,,,,,25-07-2022,319,2022-07-25_07h53.57.858,tareaTDv3,2020.2.5,Win32,60,,,left,1.0,2.0541,0.0,31.0,31.0,41.0,1.0,5000.0,0.0,35000.0,31.0
,,,,,,,,,,,,,,,,,,,,,,,25-07-2022,319,2022-07-25_07h53.57.858,tareaTDv3,2020.2.5,Win32,60,,,left,1.0,0.6216,0.0,32.0,32.0,29.0,1.0,10000.0,0.0,151000.0,151.0
,,,,,,,,,,,,,,,,,,,,,,,25-07-2022,319,2022-07-25_07h53.57.858,tareaTDv3,2020.2.5,Win32,60,,,right,1.0,0.497,0.0,33.0,33.0,9.0,1.0,10000.0,0.0,151000.0,11.0
,,,,,,,,,,,,,,,,,,,,,,,25-07-2022,319,2022-07-25_07h53.57.858,tareaTDv3,2020.2.5,Win32,60,,,right,0.0,1.4243,0.0,34.0,34.0,50.0,1.0,5000.0,0.0,15000.0,91.0
,,,,,,,,,,,,,,,,,,,,,,,25-07-2022,319,2022-07-25_07h53.57.858,tareaTDv3,2020.2.5,Win32,60,,,right,1.0,3.0603,0.0,35.0,35.0,59.0,1.0,5000.0,0.0,151000.0,150.0
,,,,,,,,,,,,,,,,,,,,,,,25-07-2022,319,2022-07-25_07h53.57.858,tareaTDv3,2020.2.5,Win32,60,,,left,1.0,2.1654,0.0,36.0,36.0,37.0,1.0,5000.0,0.0,56000.0,9.0
,,,,,,,,,,,,,,,,,,,,,,,25-07-2022,319,2022-07-25_07h53.57.858,tareaTDv3,2020.2.5,Win32,60,,,right,0.0,3.7245,0.0,37.0,37.0,87.0,1.0,25000.0,0.0,75000.0,151.0
,,,,,,,,,,,,,,,,,,,,,,,25-07-2022,319,2022-07-25_07h53.57.858,tareaTDv3,2020.2.5,Win32,60,,,left,1.0,2.4124,0.0,38.0,38.0,42.0,1.0,5000.0,0.0,56000.0,29.0
,,,,,,,,,,,,,,,,,,,,,,,25-07-2022,319,2022-07-25_07h53.57.858,tareaTDv3,2020.2.5,Win32,60,,,left,0.0,3.6987,0.0,39.0,39.0,10.0,1.0,10000.0,0.0,21000.0,31.0
,,,,,,,,,,,,,,,,,,,,,,,25-07-2022,319,2022-07-25_07h53.57.858,tareaTDv3,2020.2.5,Win32,60,,,left,1.0,2.648,0.0,40.0,40.0,70.0,1.0,25000.0,0.0,35000.0,30.0
,,,,,,,,,,,,,,,,,,,,,,,25-07-2022,319,2022-07-25_07h53.57.858,tareaTDv3,2020.2.5,Win32,60,,,left,0.0,2.5188,0.0,41.0,41.0,51.0,1.0,5000.0,0.0,35000.0,89.0
,,,,,,,,,,,,,,,,,,,,,,,25-07-2022,319,2022-07-25_07h53.57.858,tareaTDv3,2020.2.5,Win32,60,,,left,1.0,0.9344,0.0,42.0,42.0,6.0,1.0,10000.0,0.0,40000.0,10.0
,,,,,,,,,,,,,,,,,,,,,,,25-07-2022,319,2022-07-25_07h53.57.858,tareaTDv3,2020.2.5,Win32,60,,,right,1.0,2.9573,0.0,43.0,43.0,30.0,1.0,5000.0,0.0,16000.0,4.0
,,,,,,,,,,,,,,,,,,,,,,,25-07-2022,319,2022-07-25_07h53.57.858,tareaTDv3,2020.2.5,Win32,60,,,right,1.0,0.828,0.0,44.0,44.0,36.0,1.0,5000.0,0.0,36000.0,9.0
,,,,,,,,,,,,,,,,,,,,,,,25-07-2022,319,2022-07-25_07h53.57.858,tareaTDv3,2020.2.5,Win32,60,,,left,0.0,1.3635,0.0,45.0,45.0,88.0,1.0,25000.0,0.0,125000.0,149.0
,,,,,,,,,,,,,,,,,,,,,,,25-07-2022,319,2022-07-25_07h53.57.858,tareaTDv3,2020.2.5,Win32,60,,,left,1.0,1.5181,0.0,46.0,46.0,14.0,1.0,10000.0,0.0,150000.0,30.0
,,,,,,,,,,,,,,,,,,,,,,,25-07-2022,319,2022-07-25_07h53.57.858,tareaTDv3,2020.2.5,Win32,60,,,right,1.0,0.6496,0.0,47.0,47.0,2.0,1.0,10000.0,0.0,61000.0,4.0
,,,,,,,,,,,,,,,,,,,,,,,25-07-2022,319,2022-07-25_07h53.57.858,tareaTDv3,2020.2.5,Win32,60,,,left,1.0,1.2789,0.0,48.0,48.0,73.0,1.0,25000.0,0.0,125000.0,31.0
,,,,,,,,,,,,,,,,,,,,,,,25-07-2022,319,2022-07-25_07h53.57.858,tareaTDv3,2020.2.5,Win32,60,,,right,1.0,1.1881,0.0,49.0,49.0,84.0,1.0,25000.0,0.0,150000.0,89.0
,,,,,,,,,,,,,,,,,,,,,,,25-07-2022,319,2022-07-25_07h53.57.858,tareaTDv3,2020.2.5,Win32,60,,,right,1.0,0.6665,0.0,50.0,50.0,53.0,1.0,5000.0,0.0,104000.0,90.0
,,,,,,,,,,,,,,,,,,,,,,,25-07-2022,319,2022-07-25_07h53.57.858,tareaTDv3,2020.2.5,Win32,60,,,right,0.0,1.1451,0.0,51.0,51.0,85.0,1.0,25000.0,0.0,35000.0,150.0
,,,,,,,,,,,,,,,,,,,,,,,25-07-2022,319,2022-07-25_07h53.57.858,tareaTDv3,2020.2.5,Win32,60,,,right,1.0,0.4726,0.0,52.0,52.0,33.0,1.0,5000.0,0.0,104000.0,5.0
,,,,,,,,,,,,,,,,,,,,,,,25-07-2022,319,2022-07-25_07h53.57.858,tareaTDv3,2020.2.5,Win32,60,,,right,0.0,3.14,0.0,53.0,53.0,55.0,1.0,5000.0,0.0,14000.0,149.0
,,,,,,,,,,,,,,,,,,,,,,,25-07-2022,319,2022-07-25_07h53.57.858,tareaTDv3,2020.2.5,Win32,60,,,right,1.0,0.9912,0.0,54.0,54.0,22.0,1.0,10000.0,0.0,61000.0,89.0
,,,,,,,,,,,,,,,,,,,,,,,25-07-2022,319,2022-07-25_07h53.57.858,tareaTDv3,2020.2.5,Win32,60,,,left,1.0,0.3328,0.0,55.0,55.0,3.0,1.0,10000.0,0.0,109000.0,5.0
,,,,,,,,,,,,,,,,,,,,,,,25-07-2022,319,2022-07-25_07h53.57.858,tareaTDv3,2020.2.5,Win32,60,,,right,1.0,0.5161,0.0,56.0,56.0,81.0,1.0,25000.0,0.0,55000.0,90.0
,,,,,,,,,,,,,,,,,,,,,,,25-07-2022,319,2022-07-25_07h53.57.858,tareaTDv3,2020.2.5,Win32,60,,,left,1.0,2.0372,0.0,57.0,57.0,83.0,1.0,25000.0,0.0,125000.0,89.0
,,,,,,,,,,,,,,,,,,,,,,,25-07-2022,319,2022-07-25_07h53.57.858,tareaTDv3,2020.2.5,Win32,60,,,right,0.0,0.8818,0.0,58.0,58.0,89.0,1.0,25000.0,0.0,150000.0,150.0
,,,,,,,,,,,,,,,,,,,,,,,25-07-2022,319,2022-07-25_07h53.57.858,tareaTDv3,2020.2.5,Win32,60,,,left,1.0,1.9551,0.0,59.0,59.0,28.0,1.0,10000.0,0.0,109000.0,149.0
,,,,,,,,,,,,,,,,,,,,,,,25-07-2022,319,2022-07-25_07h53.57.858,tareaTDv3,2020.2.5,Win32,60,,,right,1.0,1.5338,0.0,60.0,60.0,7.0,1.0,10000.0,0.0,59000.0,9.0
,,,,,,,,,,,,,,,,,,,,,,,25-07-2022,319,2022-07-25_07h53.57.858,tareaTDv3,2020.2.5,Win32,60,,,right,1.0,3.2887,0.0,61.0,61.0,1.0,1.0,10000.0,0.0,39000.0,6.0
,,,,,,,,,,,,,,,,,,,,,,,25-07-2022,319,2022-07-25_07h53.57.858,tareaTDv3,2020.2.5,Win32,60,,,right,1.0,2.781,0.0,62.0,62.0,35.0,1.0,5000.0,0.0,15000.0,11.0
,,,,,,,,,,,,,,,,,,,,,,,25-07-2022,319,2022-07-25_07h53.57.858,tareaTDv3,2020.2.5,Win32,60,,,left,1.0,0.3837,0.0,63.0,63.0,60.0,1.0,25000.0,0.0,35000.0,5.0
,,,,,,,,,,,,,,,,,,,,,,,25-07-2022,319,2022-07-25_07h53.57.858,tareaTDv3,2020.2.5,Win32,60,,,right,1.0,0.336,0.0,64.0,64.0,38.0,1.0,5000.0,0.0,104000.0,10.0
,,,,,,,,,,,,,,,,,,,,,,,25-07-2022,319,2022-07-25_07h53.57.858,tareaTDv3,2020.2.5,Win32,60,,,left,0.0,1.016,0.0,65.0,65.0,72.0,1.0,25000.0,0.0,75000.0,31.0
,,,,,,,,,,,,,,,,,,,,,,,25-07-2022,319,2022-07-25_07h53.57.858,tareaTDv3,2020.2.5,Win32,60,,,left,1.0,0.604,0.0,66.0,66.0,54.0,1.0,5000.0,0.0,150000.0,90.0
,,,,,,,,,,,,,,,,,,,,,,,25-07-2022,319,2022-07-25_07h53.57.858,tareaTDv3,2020.2.5,Win32,60,,,left,0.0,1.4497,0.0,67.0,67.0,25.0,1.0,10000.0,0.0,10000.0,150.0
,,,,,,,,,,,,,,,,,,,,,,,25-07-2022,319,2022-07-25_07h53.57.858,tareaTDv3,2020.2.5,Win32,60,,,left,1.0,8.4252,0.0,68.0,68.0,77.0,1.0,25000.0,0.0,75000.0,59.0
,,,,,,,,,,,,,,,,,,,,,,,25-07-2022,319,2022-07-25_07h53.57.858,tareaTDv3,2020.2.5,Win32,60,,,left,1.0,3.3503,0.0,69.0,69.0,64.0,1.0,25000.0,0.0,150000.0,4.0
,,,,,,,,,,,,,,,,,,,,,,,25-07-2022,319,2022-07-25_07h53.57.858,tareaTDv3,2020.2.5,Win32,60,,,right,0.0,5.6869,0.0,70.0,70.0,58.0,1.0,5000.0,0.0,106000.0,152.0
,,,,,,,,,,,,,,,,,,,,,,,25-07-2022,319,2022-07-25_07h53.57.858,tareaTDv3,2020.2.5,Win32,60,,,right,1.0,1.2805,0.0,71.0,71.0,65.0,1.0,25000.0,0.0,35000.0,11.0
,,,,,,,,,,,,,,,,,,,,,,,25-07-2022,319,2022-07-25_07h53.57.858,tareaTDv3,2020.2.5,Win32,60,,,left,1.0,2.4985,0.0,72.0,72.0,46.0,1.0,5000.0,0.0,36000.0,61.0
,,,,,,,,,,,,,,,,,,,,,,,25-07-2022,319,2022-07-25_07h53.57.858,tareaTDv3,2020.2.5,Win32,60,,,right,0.0,4.9255,0.0,73.0,73.0,40.0,1.0,5000.0,0.0,14000.0,31.0
,,,,,,,,,,,,,,,,,,,,,,,25-07-2022,319,2022-07-25_07h53.57.858,tareaTDv3,2020.2.5,Win32,60,,,right,1.0,0.7196,0.0,74.0,74.0,21.0,1.0,10000.0,0.0,40000.0,91.0
,,,,,,,,,,,,,,,,,,,,,,,25-07-2022,319,2022-07-25_07h53.57.858,tareaTDv3,2020.2.5,Win32,60,,,left,1.0,0.4044,0.0,75.0,75.0,82.0,1.0,25000.0,0.0,75000.0,90.0
,,,,,,,,,,,,,,,,,,,,,,,25-07-2022,319,2022-07-25_07h53.57.858,tareaTDv3,2020.2.5,Win32,60,,,right,1.0,0.8256,0.0,76.0,76.0,56.0,1.0,5000.0,0.0,35000.0,150.0
,,,,,,,,,,,,,,,,,,,,,,,25-07-2022,319,2022-07-25_07h53.57.858,tareaTDv3,2020.2.5,Win32,60,,,left,1.0,0.7744,0.0,77.0,77.0,24.0,1.0,10000.0,0.0,149000.0,89.0
,,,,,,,,,,,,,,,,,,,,,,,25-07-2022,319,2022-07-25_07h53.57.858,tareaTDv3,2020.2.5,Win32,60,,,right,1.0,1.1832,0.0,78.0,78.0,13.0,1.0,10000.0,0.0,111000.0,30.0
,,,,,,,,,,,,,,,,,,,,,,,25-07-2022,319,2022-07-25_07h53.57.858,tareaTDv3,2020.2.5,Win32,60,,,right,1.0,0.5091,0.0,79.0,79.0,23.0,1.0,10000.0,0.0,110000.0,90.0
,,,,,,,,,,,,,,,,,,,,,,,25-07-2022,319,2022-07-25_07h53.57.858,tareaTDv3,2020.2.5,Win32,60,,,left,1.0,2.5345,0.0,80.0,80.0,15.0,1.0,10000.0,0.0,20000.0,59.0
,,,,,,,,,,,,,,,,,,,,,,,25-07-2022,319,2022-07-25_07h53.57.858,tareaTDv3,2020.2.5,Win32,60,,,right,1.0,0.4881,0.0,81.0,81.0,17.0,1.0,10000.0,0.0,60000.0,60.0
,,,,,,,,,,,,,,,,,,,,,,,25-07-2022,319,2022-07-25_07h53.57.858,tareaTDv3,2020.2.5,Win32,60,,,right,1.0,2.475,0.0,82.0,82.0,32.0,1.0,5000.0,0.0,54000.0,5.0
,,,,,,,,,,,,,,,,,,,,,,,25-07-2022,319,2022-07-25_07h53.57.858,tareaTDv3,2020.2.5,Win32,60,,,right,1.0,1.8603,0.0,83.0,83.0,71.0,1.0,25000.0,0.0,55000.0,30.0
,,,,,,,,,,,,,,,,,,,,,,,25-07-2022,319,2022-07-25_07h53.57.858,tareaTDv3,2020.2.5,Win32,60,,,right,0.0,4.7452,0.0,84.0,84.0,49.0,1.0,5000.0,0.0,149000.0,59.0
,,,,,,,,,,,,,,,,,,,,,,,25-07-2022,319,2022-07-25_07h53.57.858,tareaTDv3,2020.2.5,Win32,60,,,left,0.0,1.2079,0.0,85.0,85.0,57.0,1.0,5000.0,0.0,55000.0,151.0
,,,,,,,,,,,,,,,,,,,,,,,25-07-2022,319,2022-07-25_07h53.57.858,tareaTDv3,2020.2.5,Win32,60,,,right,1.0,0.71,0.0,86.0,86.0,78.0,1.0,25000.0,0.0,125000.0,59.0
,,,,,,,,,,,,,,,,,,,,,,,25-07-2022,319,2022-07-25_07h53.57.858,tareaTDv3,2020.2.5,Win32,60,,,right,1.0,1.6754,0.0,87.0,87.0,0.0,1.0,10000.0,0.0,20000.0,5.0
,,,,,,,,,,,,,,,,,,,,,,,25-07-2022,319,2022-07-25_07h53.57.858,tareaTDv3,2020.2.5,Win32,60,,,right,1.0,0.4853,0.0,88.0,88.0,68.0,1.0,25000.0,0.0,125000.0,9.0
,,,,,,,,,,,,,,,,,,,,,,,25-07-2022,319,2022-07-25_07h53.57.858,tareaTDv3,2020.2.5,Win32,60,,,left,1.0,1.0379,0.0,89.0,89.0,20.0,1.0,10000.0,0.0,20000.0,90.0
