key1.keys,key1.rt,key2.keys,key2.rt,key2_2.keys,key2_2.rt,key2_3.keys,key2_3.rt,key3.keys,key3.rt,key4.keys,key4.rt,respP.keys,respP.corr,respP.rt,Practice.thisRepN,Practice.thisTrialN,Practice.thisN,Practice.thisIndex,Practice.ran,ssAmount,llAmount,llDelay,session,participant,date,expName,psychopyVersion,OS,frameRate,key5.keys,key5.rt,respT.keys,respT.corr,respT.rt,trials.thisRepN,trials.thisTrialN,trials.thisN,trials.thisIndex,trials.ran,ss_am,ss_del,ll_am,ll_del,key_resp_4.keys,key_resp_4.rt
space,6.9305,space,17.6305,space,9.8003,space,2.7916,right,6.3336,space,3.3184,right,0.0,4.7185,0.0,0.0,0.0,1.0,1.0,25000.0,35000.0,150.0,25-07-2022,331,2022-07-25_07h42.06.094,tareaTDv3,2020.2.5,Win32,60,,,,,,,,,,,,,,,,
,,,,,,,,,,,,right,0.0,5.258,0.0,1.0,1.0,2.0,1.0,10000.0,19000.0,89.0,25-07-2022,331,2022-07-25_07h42.06.094,tareaTDv3,2020.2.5,Win32,60,,,,,,,,,,,,,,,,
,,,,,,,,,,,,right,1.0,3.3851,0.0,2.0,2.0,0.0,1.0,10000.0,109000.0,9.0,25-07-2022,331,2022-07-25_07h42.06.094,tareaTDv3,2020.2.5,Win32,60,,,,,,,,,,,,,,,,
,,,,,,,,,,,,,,,,,,,,,,,25-07-2022,331,2022-07-25_07h42.06.094,tareaTDv3,2020.2.5,Win32,60,g,4.9871,right,1.0,5.2686,0.0,0.0,0.0,83.0,1.0,25000.0,0.0,125000.0,89.0,,
,,,,,,,,,,,,,,,,,,,,,,,25-07-2022,331,2022-07-25_07h42.06.094,tareaTDv3,2020.2.5,Win32,60,,,left,0.0,1.9311,0.0,1.0,1.0,75.0,1.0,25000.0,0.0,35000.0,60.0,,
,,,,,,,,,,,,,,,,,,,,,,,25-07-2022,331,2022-07-25_07h42.06.094,tareaTDv3,2020.2.5,Win32,60,,,right,1.0,1.419,0.0,2.0,2.0,0.0,1.0,10000.0,0.0,20000.0,5.0,,
,,,,,,,,,,,,,,,,,,,,,,,25-07-2022,331,2022-07-25_07h42.06.094,tareaTDv3,2020.2.5,Win32,60,,,left,0.0,1.5368,0.0,3.0,3.0,27.0,1.0,10000.0,0.0,61000.0,150.0,,
,,,,,,,,,,,,,,,,,,,,,,,25-07-2022,331,2022-07-25_07h42.06.094,tareaTDv3,2020.2.5,Win32,60,,,left,1.0,1.2863,0.0,4.0,4.0,66.0,1.0,25000.0,0.0,55000.0,11.0,,
,,,,,,,,,,,,,,,,,,,,,,,25-07-2022,331,2022-07-25_07h42.06.094,tareaTDv3,2020.2.5,Win32,60,,,left,1.0,0.5954,0.0,5.0,5.0,60.0,1.0,25000.0,0.0,35000.0,5.0,,
,,,,,,,,,,,,,,,,,,,,,,,25-07-2022,331,2022-07-25_07h42.06.094,tareaTDv3,2020.2.5,Win32,60,,,left,1.0,0.8992,0.0,6.0,6.0,47.0,1.0,5000.0,0.0,56000.0,60.0,,
,,,,,,,,,,,,,,,,,,,,,,,25-07-2022,331,2022-07-25_07h42.06.094,tareaTDv3,2020.2.5,Win32,60,,,right,1.0,1.9456,0.0,7.0,7.0,46.0,1.0,5000.0,0.0,36000.0,61.0,,
,,,,,,,,,,,,,,,,,,,,,,,25-07-2022,331,2022-07-25_07h42.06.094,tareaTDv3,2020.2.5,Win32,60,,,left,1.0,1.4722,0.0,8.0,8.0,19.0,1.0,10000.0,0.0,149000.0,61.0,,
,,,,,,,,,,,,,,,,,,,,,,,25-07-2022,331,2022-07-25_07h42.06.094,tareaTDv3,2020.2.5,Win32,60,,,right,1.0,5.3351,0.0,9.0,9.0,57.0,1.0,5000.0,0.0,55000.0,151.0,,
,,,,,,,,,,,,,,,,,,,,,,,25-07-2022,331,2022-07-25_07h42.06.094,tareaTDv3,2020.2.5,Win32,60,,,left,1.0,1.6166,0.0,10.0,10.0,49.0,1.0,5000.0,0.0,149000.0,59.0,,
,,,,,,,,,,,,,,,,,,,,,,,25-07-2022,331,2022-07-25_07h42.06.094,tareaTDv3,2020.2.5,Win32,60,,,left,1.0,1.2502,0.0,11.0,11.0,17.0,1.0,10000.0,0.0,60000.0,60.0,,
,,,,,,,,,,,,,,,,,,,,,,,25-07-2022,331,2022-07-25_07h42.06.094,tareaTDv3,2020.2.5,Win32,60,,,left,1.0,1.2992,0.0,12.0,12.0,69.0,1.0,25000.0,0.0,150000.0,9.0,,
,,,,,,,,,,,,,,,,,,,,,,,25-07-2022,331,2022-07-25_07h42.06.094,tareaTDv3,2020.2.5,Win32,60,,,right,0.0,2.531,0.0,13.0,13.0,26.0,1.0,10000.0,0.0,39000.0,150.0,,
,,,,,,,,,,,,,,,,,,,,,,,25-07-2022,331,2022-07-25_07h42.06.094,tareaTDv3,2020.2.5,Win32,60,,,right,1.0,1.121,0.0,14.0,14.0,42.0,1.0,5000.0,0.0,56000.0,29.0,,
,,,,,,,,,,,,,,,,,,,,,,,25-07-2022,331,2022-07-25_07h42.06.094,tareaTDv3,2020.2.5,Win32,60,,,left,1.0,3.3273,0.0,15.0,15.0,10.0,1.0,10000.0,0.0,21000.0,31.0,,
,,,,,,,,,,,,,,,,,,,,,,,25-07-2022,331,2022-07-25_07h42.06.094,tareaTDv3,2020.2.5,Win32,60,,,right,1.0,1.6983,0.0,16.0,16.0,12.0,1.0,10000.0,0.0,60000.0,29.0,,
,,,,,,,,,,,,,,,,,,,,,,,25-07-2022,331,2022-07-25_07h42.06.094,tareaTDv3,2020.2.5,Win32,60,,,left,1.0,1.8868,0.0,17.0,17.0,18.0,1.0,10000.0,0.0,110000.0,60.0,,
,,,,,,,,,,,,,,,,,,,,,,,25-07-2022,331,2022-07-25_07h42.06.094,tareaTDv3,2020.2.5,Win32,60,,,right,1.0,1.3455,0.0,18.0,18.0,13.0,1.0,10000.0,0.0,111000.0,30.0,,
,,,,,,,,,,,,,,,,,,,,,,,25-07-2022,331,2022-07-25_07h42.06.094,tareaTDv3,2020.2.5,Win32,60,,,right,1.0,0.8899,0.0,19.0,19.0,74.0,1.0,25000.0,0.0,150000.0,29.0,,
,,,,,,,,,,,,,,,,,,,,,,,25-07-2022,331,2022-07-25_07h42.06.094,tareaTDv3,2020.2.5,Win32,60,,,left,1.0,1.2094,0.0,20.0,20.0,5.0,1.0,10000.0,0.0,19000.0,11.0,,
,,,,,,,,,,,,,,,,,,,,,,,25-07-2022,331,2022-07-25_07h42.06.094,tareaTDv3,2020.2.5,Win32,60,,,left,1.0,1.033,0.0,21.0,21.0,54.0,1.0,5000.0,0.0,150000.0,90.0,,
,,,,,,,,,,,,,,,,,,,,,,,25-07-2022,331,2022-07-25_07h42.06.094,tareaTDv3,2020.2.5,Win32,60,,,left,0.0,2.5881,0.0,22.0,22.0,22.0,1.0,10000.0,0.0,61000.0,89.0,,
,,,,,,,,,,,,,,,,,,,,,,,25-07-2022,331,2022-07-25_07h42.06.094,tareaTDv3,2020.2.5,Win32,60,,,right,0.0,2.1444,0.0,23.0,23.0,25.0,1.0,10000.0,0.0,10000.0,150.0,,
,,,,,,,,,,,,,,,,,,,,,,,25-07-2022,331,2022-07-25_07h42.06.094,tareaTDv3,2020.2.5,Win32,60,,,right,1.0,1.0096,0.0,24.0,24.0,76.0,1.0,25000.0,0.0,55000.0,60.0,,
,,,,,,,,,,,,,,,,,,,,,,,25-07-2022,331,2022-07-25_07h42.06.094,tareaTDv3,2020.2.5,Win32,60,,,left,0.0,6.2274,0.0,25.0,25.0,81.0,1.0,25000.0,0.0,55000.0,90.0,,
,,,,,,,,,,,,,,,,,,,,,,,25-07-2022,331,2022-07-25_07h42.06.094,tareaTDv3,2020.2.5,Win32,60,,,left,1.0,1.3015,0.0,26.0,26.0,43.0,1.0,5000.0,0.0,106000.0,29.0,,
,,,,,,,,,,,,,,,,,,,,,,,25-07-2022,331,2022-07-25_07h42.06.094,tareaTDv3,2020.2.5,Win32,60,,,right,1.0,2.0222,0.0,27.0,27.0,6.0,1.0,10000.0,0.0,40000.0,10.0,,
,,,,,,,,,,,,,,,,,,,,,,,25-07-2022,331,2022-07-25_07h42.06.094,tareaTDv3,2020.2.5,Win32,60,,,right,1.0,1.5929,0.0,28.0,28.0,28.0,1.0,10000.0,0.0,109000.0,149.0,,
,,,,,,,,,,,,,,,,,,,,,,,25-07-2022,331,2022-07-25_07h42.06.094,tareaTDv3,2020.2.5,Win32,60,,,right,1.0,1.6211,0.0,29.0,29.0,44.0,1.0,5000.0,0.0,150000.0,30.0,,
,,,,,,,,,,,,,,,,,,,,,,,25-07-2022,331,2022-07-25_07h42.06.094,tareaTDv3,2020.2.5,Win32,60,,,left,1.0,2.0649,0.0,30.0,30.0,59.0,1.0,5000.0,0.0,151000.0,150.0,,
,,,,,,,,,,,,,,,,,,,,,,,25-07-2022,331,2022-07-25_07h42.06.094,tareaTDv3,2020.2.5,Win32,60,,,left,1.0,3.5275,0.0,31.0,31.0,16.0,1.0,10000.0,0.0,39000.0,59.0,,
,,,,,,,,,,,,,,,,,,,,,,,25-07-2022,331,2022-07-25_07h42.06.094,tareaTDv3,2020.2.5,Win32,60,,,left,1.0,0.6835,0.0,32.0,32.0,37.0,1.0,5000.0,0.0,56000.0,9.0,,
,,,,,,,,,,,,,,,,,,,,,,,25-07-2022,331,2022-07-25_07h42.06.094,tareaTDv3,2020.2.5,Win32,60,,,left,1.0,2.1009,0.0,33.0,33.0,62.0,1.0,25000.0,0.0,75000.0,5.0,,
,,,,,,,,,,,,,,,,,,,,,,,25-07-2022,331,2022-07-25_07h42.06.094,tareaTDv3,2020.2.5,Win32,60,,,right,1.0,3.0224,0.0,34.0,34.0,24.0,1.0,10000.0,0.0,149000.0,89.0,,
,,,,,,,,,,,,,,,,,,,,,,,25-07-2022,331,2022-07-25_07h42.06.094,tareaTDv3,2020.2.5,Win32,60,,,right,1.0,2.0592,0.0,35.0,35.0,36.0,1.0,5000.0,0.0,36000.0,9.0,,
,,,,,,,,,,,,,,,,,,,,,,,25-07-2022,331,2022-07-25_07h42.06.094,tareaTDv3,2020.2.5,Win32,60,,,right,1.0,1.1923,0.0,36.0,36.0,11.0,1.0,10000.0,0.0,39000.0,29.0,,
,,,,,,,,,,,,,,,,,,,,,,,25-07-2022,331,2022-07-25_07h42.06.094,tareaTDv3,2020.2.5,Win32,60,,,left,1.0,0.9064,0.0,37.0,37.0,32.0,1.0,5000.0,0.0,54000.0,5.0,,
,,,,,,,,,,,,,,,,,,,,,,,25-07-2022,331,2022-07-25_07h42.06.094,tareaTDv3,2020.2.5,Win32,60,,,left,1.0,1.4763,0.0,38.0,38.0,88.0,1.0,25000.0,0.0,125000.0,149.0,,
,,,,,,,,,,,,,,,,,,,,,,,25-07-2022,331,2022-07-25_07h42.06.094,tareaTDv3,2020.2.5,Win32,60,,,left,1.0,1.5494,0.0,39.0,39.0,78.0,1.0,25000.0,0.0,125000.0,59.0,,
,,,,,,,,,,,,,,,,,,,,,,,25-07-2022,331,2022-07-25_07h42.06.094,tareaTDv3,2020.2.5,Win32,60,,,right,1.0,0.9671,0.0,40.0,40.0,8.0,1.0,10000.0,0.0,111000.0,10.0,,
,,,,,,,,,,,,,,,,,,,,,,,25-07-2022,331,2022-07-25_07h42.06.094,tareaTDv3,2020.2.5,Win32,60,,,left,1.0,1.2209,0.0,41.0,41.0,14.0,1.0,10000.0,0.0,150000.0,30.0,,
,,,,,,,,,,,,,,,,,,,,,,,25-07-2022,331,2022-07-25_07h42.06.094,tareaTDv3,2020.2.5,Win32,60,,,left,1.0,0.62,0.0,42.0,42.0,33.0,1.0,5000.0,0.0,104000.0,5.0,,
,,,,,,,,,,,,,,,,,,,,,,,25-07-2022,331,2022-07-25_07h42.06.094,tareaTDv3,2020.2.5,Win32,60,,,right,1.0,0.5766,0.0,43.0,43.0,31.0,1.0,5000.0,0.0,35000.0,6.0,,
,,,,,,,,,,,,,,,,,,,,,,,25-07-2022,331,2022-07-25_07h42.06.094,tareaTDv3,2020.2.5,Win32,60,,,left,1.0,1.4298,0.0,44.0,44.0,23.0,1.0,10000.0,0.0,110000.0,90.0,,
,,,,,,,,,,,,,,,,,,,,,,,25-07-2022,331,2022-07-25_07h42.06.094,tareaTDv3,2020.2.5,Win32,60,,,right,1.0,1.6484,0.0,45.0,45.0,63.0,1.0,25000.0,0.0,125000.0,4.0,,
,,,,,,,,,,,,,,,,,,,,,,,25-07-2022,331,2022-07-25_07h42.06.094,tareaTDv3,2020.2.5,Win32,60,,,right,1.0,0.6517,0.0,46.0,46.0,38.0,1.0,5000.0,0.0,104000.0,10.0,,
,,,,,,,,,,,,,,,,,,,,,,,25-07-2022,331,2022-07-25_07h42.06.094,tareaTDv3,2020.2.5,Win32,60,,,left,1.0,0.7093,0.0,47.0,47.0,73.0,1.0,25000.0,0.0,125000.0,31.0,,
,,,,,,,,,,,,,,,,,,,,,,,25-07-2022,331,2022-07-25_07h42.06.094,tareaTDv3,2020.2.5,Win32,60,,,right,1.0,2.128,0.0,48.0,48.0,52.0,1.0,5000.0,0.0,56000.0,89.0,,
,,,,,,,,,,,,,,,,,,,,,,,25-07-2022,331,2022-07-25_07h42.06.094,tareaTDv3,2020.2.5,Win32,60,,,left,1.0,2.0339,0.0,49.0,49.0,80.0,1.0,25000.0,0.0,35000.0,90.0,,
,,,,,,,,,,,,,,,,,,,,,,,25-07-2022,331,2022-07-25_07h42.06.094,tareaTDv3,2020.2.5,Win32,60,,,left,1.0,0.5837,0.0,50.0,50.0,61.0,1.0,25000.0,0.0,55000.0,6.0,,
,,,,,,,,,,,,,,,,,,,,,,,25-07-2022,331,2022-07-25_07h42.06.094,tareaTDv3,2020.2.5,Win32,60,,,right,1.0,0.4202,0.0,51.0,51.0,70.0,1.0,25000.0,0.0,35000.0,30.0,,
,,,,,,,,,,,,,,,,,,,,,,,25-07-2022,331,2022-07-25_07h42.06.094,tareaTDv3,2020.2.5,Win32,60,,,right,1.0,0.6388,0.0,52.0,52.0,68.0,1.0,25000.0,0.0,125000.0,9.0,,
,,,,,,,,,,,,,,,,,,,,,,,25-07-2022,331,2022-07-25_07h42.06.094,tareaTDv3,2020.2.5,Win32,60,,,left,1.0,0.4951,0.0,53.0,53.0,72.0,1.0,25000.0,0.0,75000.0,31.0,,
,,,,,,,,,,,,,,,,,,,,,,,25-07-2022,331,2022-07-25_07h42.06.094,tareaTDv3,2020.2.5,Win32,60,,,left,1.0,1.1346,0.0,54.0,54.0,21.0,1.0,10000.0,0.0,40000.0,91.0,,
,,,,,,,,,,,,,,,,,,,,,,,25-07-2022,331,2022-07-25_07h42.06.094,tareaTDv3,2020.2.5,Win32,60,,,right,1.0,0.6872,0.0,55.0,55.0,7.0,1.0,10000.0,0.0,59000.0,9.0,,
,,,,,,,,,,,,,,,,,,,,,,,25-07-2022,331,2022-07-25_07h42.06.094,tareaTDv3,2020.2.5,Win32,60,,,left,1.0,1.1575,0.0,56.0,56.0,53.0,1.0,5000.0,0.0,104000.0,90.0,,
,,,,,,,,,,,,,,,,,,,,,,,25-07-2022,331,2022-07-25_07h42.06.094,tareaTDv3,2020.2.5,Win32,60,,,left,0.0,4.1417,0.0,57.0,57.0,50.0,1.0,5000.0,0.0,15000.0,91.0,,
,,,,,,,,,,,,,,,,,,,,,,,25-07-2022,331,2022-07-25_07h42.06.094,tareaTDv3,2020.2.5,Win32,60,,,left,1.0,1.1502,0.0,58.0,58.0,35.0,1.0,5000.0,0.0,15000.0,11.0,,
,,,,,,,,,,,,,,,,,,,,,,,25-07-2022,331,2022-07-25_07h42.06.094,tareaTDv3,2020.2.5,Win32,60,,,right,1.0,0.8261,0.0,59.0,59.0,2.0,1.0,10000.0,0.0,61000.0,4.0,,
,,,,,,,,,,,,,,,,,,,,,,,25-07-2022,331,2022-07-25_07h42.06.094,tareaTDv3,2020.2.5,Win32,60,,,right,1.0,0.967,0.0,60.0,60.0,40.0,1.0,5000.0,0.0,14000.0,31.0,,
,,,,,,,,,,,,,,,,,,,,,,,25-07-2022,331,2022-07-25_07h42.06.094,tareaTDv3,2020.2.5,Win32,60,,,right,1.0,1.2759,0.0,61.0,61.0,71.0,1.0,25000.0,0.0,55000.0,30.0,,
,,,,,,,,,,,,,,,,,,,,,,,25-07-2022,331,2022-07-25_07h42.06.094,tareaTDv3,2020.2.5,Win32,60,,,right,1.0,2.5397,0.0,62.0,62.0,58.0,1.0,5000.0,0.0,106000.0,152.0,,
,,,,,,,,,,,,,,,,,,,,,,,25-07-2022,331,2022-07-25_07h42.06.094,tareaTDv3,2020.2.5,Win32,60,,,right,1.0,1.5559,0.0,63.0,63.0,4.0,1.0,10000.0,0.0,150000.0,5.0,,
,,,,,,,,,,,,,,,,,,,,,,,25-07-2022,331,2022-07-25_07h42.06.094,tareaTDv3,2020.2.5,Win32,60,,,left,1.0,0.4654,0.0,64.0,64.0,3.0,1.0,10000.0,0.0,109000.0,5.0,,
,,,,,,,,,,,,,,,,,,,,,,,25-07-2022,331,2022-07-25_07h42.06.094,tareaTDv3,2020.2.5,Win32,60,,,left,1.0,2.797,0.0,65.0,65.0,56.0,1.0,5000.0,0.0,35000.0,150.0,,
,,,,,,,,,,,,,,,,,,,,,,,25-07-2022,331,2022-07-25_07h42.06.094,tareaTDv3,2020.2.5,Win32,60,,,right,1.0,3.1392,0.0,66.0,66.0,87.0,1.0,25000.0,0.0,75000.0,151.0,,
,,,,,,,,,,,,,,,,,,,,,,,25-07-2022,331,2022-07-25_07h42.06.094,tareaTDv3,2020.2.5,Win32,60,,,left,1.0,0.9192,0.0,67.0,67.0,89.0,1.0,25000.0,0.0,150000.0,150.0,,
,,,,,,,,,,,,,,,,,,,,,,,25-07-2022,331,2022-07-25_07h42.06.094,tareaTDv3,2020.2.5,Win32,60,,,right,1.0,1.2951,0.0,68.0,68.0,30.0,1.0,5000.0,0.0,16000.0,4.0,,
,,,,,,,,,,,,,,,,,,,,,,,25-07-2022,331,2022-07-25_07h42.06.094,tareaTDv3,2020.2.5,Win32,60,,,left,1.0,1.1716,0.0,69.0,69.0,29.0,1.0,10000.0,0.0,151000.0,151.0,,
,,,,,,,,,,,,,,,,,,,,,,,25-07-2022,331,2022-07-25_07h42.06.094,tareaTDv3,2020.2.5,Win32,60,,,right,1.0,0.7434,0.0,70.0,70.0,64.0,1.0,25000.0,0.0,150000.0,4.0,,
,,,,,,,,,,,,,,,,,,,,,,,25-07-2022,331,2022-07-25_07h42.06.094,tareaTDv3,2020.2.5,Win32,60,,,right,0.0,1.3389,0.0,71.0,71.0,55.0,1.0,5000.0,0.0,14000.0,149.0,,
,,,,,,,,,,,,,,,,,,,,,,,25-07-2022,331,2022-07-25_07h42.06.094,tareaTDv3,2020.2.5,Win32,60,,,left,1.0,0.8046,0.0,72.0,72.0,79.0,1.0,25000.0,0.0,150000.0,61.0,,
,,,,,,,,,,,,,,,,,,,,,,,25-07-2022,331,2022-07-25_07h42.06.094,tareaTDv3,2020.2.5,Win32,60,,,right,1.0,0.9731,0.0,73.0,73.0,48.0,1.0,5000.0,0.0,105000.0,60.0,,
,,,,,,,,,,,,,,,,,,,,,,,25-07-2022,331,2022-07-25_07h42.06.094,tareaTDv3,2020.2.5,Win32,60,,,left,0.0,1.9179,0.0,74.0,74.0,15.0,1.0,10000.0,0.0,20000.0,59.0,,
,,,,,,,,,,,,,,,,,,,,,,,25-07-2022,331,2022-07-25_07h42.06.094,tareaTDv3,2020.2.5,Win32,60,,,left,1.0,0.9082,0.0,75.0,75.0,9.0,1.0,10000.0,0.0,151000.0,11.0,,
,,,,,,,,,,,,,,,,,,,,,,,25-07-2022,331,2022-07-25_07h42.06.094,tareaTDv3,2020.2.5,Win32,60,,,left,1.0,1.0129,0.0,76.0,76.0,67.0,1.0,25000.0,0.0,75000.0,10.0,,
,,,,,,,,,,,,,,,,,,,,,,,25-07-2022,331,2022-07-25_07h42.06.094,tareaTDv3,2020.2.5,Win32,60,,,left,1.0,0.974,0.0,77.0,77.0,20.0,1.0,10000.0,0.0,20000.0,90.0,,
,,,,,,,,,,,,,,,,,,,,,,,25-07-2022,331,2022-07-25_07h42.06.094,tareaTDv3,2020.2.5,Win32,60,,,left,1.0,1.1061,0.0,78.0,78.0,41.0,1.0,5000.0,0.0,35000.0,31.0,,
,,,,,,,,,,,,,,,,,,,,,,,25-07-2022,331,2022-07-25_07h42.06.094,tareaTDv3,2020.2.5,Win32,60,,,right,1.0,0.6998,0.0,79.0,79.0,39.0,1.0,5000.0,0.0,149000.0,10.0,,
,,,,,,,,,,,,,,,,,,,,,,,25-07-2022,331,2022-07-25_07h42.06.094,tareaTDv3,2020.2.5,Win32,60,,,right,1.0,0.9229,0.0,80.0,80.0,51.0,1.0,5000.0,0.0,35000.0,89.0,,
,,,,,,,,,,,,,,,,,,,,,,,25-07-2022,331,2022-07-25_07h42.06.094,tareaTDv3,2020.2.5,Win32,60,,,right,1.0,1.1964,0.0,81.0,81.0,82.0,1.0,25000.0,0.0,75000.0,90.0,,
,,,,,,,,,,,,,,,,,,,,,,,25-07-2022,331,2022-07-25_07h42.06.094,tareaTDv3,2020.2.5,Win32,60,,,right,1.0,0.9196,0.0,82.0,82.0,1.0,1.0,10000.0,0.0,39000.0,6.0,,
,,,,,,,,,,,,,,,,,,,,,,,25-07-2022,331,2022-07-25_07h42.06.094,tareaTDv3,2020.2.5,Win32,60,,,left,1.0,0.5896,0.0,83.0,83.0,45.0,1.0,5000.0,0.0,15000.0,61.0,,
,,,,,,,,,,,,,,,,,,,,,,,25-07-2022,331,2022-07-25_07h42.06.094,tareaTDv3,2020.2.5,Win32,60,,,right,1.0,1.284,0.0,84.0,84.0,34.0,1.0,5000.0,0.0,151000.0,4.0,,
,,,,,,,,,,,,,,,,,,,,,,,25-07-2022,331,2022-07-25_07h42.06.094,tareaTDv3,2020.2.5,Win32,60,,,right,1.0,2.3968,0.0,85.0,85.0,84.0,1.0,25000.0,0.0,150000.0,89.0,,
,,,,,,,,,,,,,,,,,,,,,,,25-07-2022,331,2022-07-25_07h42.06.094,tareaTDv3,2020.2.5,Win32,60,,,left,0.0,1.2063,0.0,86.0,86.0,85.0,1.0,25000.0,0.0,35000.0,150.0,,
,,,,,,,,,,,,,,,,,,,,,,,25-07-2022,331,2022-07-25_07h42.06.094,tareaTDv3,2020.2.5,Win32,60,,,left,1.0,1.2733,0.0,87.0,87.0,77.0,1.0,25000.0,0.0,75000.0,59.0,,
,,,,,,,,,,,,,,,,,,,,,,,25-07-2022,331,2022-07-25_07h42.06.094,tareaTDv3,2020.2.5,Win32,60,,,right,0.0,2.6705,0.0,88.0,88.0,86.0,1.0,25000.0,0.0,55000.0,151.0,,
,,,,,,,,,,,,,,,,,,,,,,,25-07-2022,331,2022-07-25_07h42.06.094,tareaTDv3,2020.2.5,Win32,60,,,right,1.0,1.7129,0.0,89.0,89.0,65.0,1.0,25000.0,0.0,35000.0,11.0,,
,,,,,,,,,,,,,,,,,,,,,,,25-07-2022,331,2022-07-25_07h42.06.094,tareaTDv3,2020.2.5,Win32,60,,,,,,,,,,,,,,,space,1.8304
