key1.keys,key1.rt,key2.keys,key2.rt,key2_2.keys,key2_2.rt,key2_3.keys,key2_3.rt,key3.keys,key3.rt,key4.keys,key4.rt,respP.keys,respP.corr,respP.rt,Practice.thisRepN,Practice.thisTrialN,Practice.thisN,Practice.thisIndex,Practice.ran,ssAmount,llAmount,llDelay,session,participant,date,expName,psychopyVersion,OS,frameRate,key5.keys,key5.rt,respT.keys,respT.corr,respT.rt,trials.thisRepN,trials.thisTrialN,trials.thisN,trials.thisIndex,trials.ran,ss_am,ss_del,ll_am,ll_del
space,6.2992,space,23.3752,space,20.3217,space,4.6726,right,4.1171,space,2.2525,left,1,3.5543,0,0,0,0,1,10000,109000,9,1,384,2022-09-02_09h23.43.619,tareaTDv3,2020.2.5,MacIntel,60,,,,,,,,,,,,,,
,,,,,,,,,,,,right,0,4.1543,0,1,1,2,1,10000,19000,89,1,384,2022-09-02_09h23.43.619,tareaTDv3,2020.2.5,MacIntel,60,,,,,,,,,,,,,,
,,,,,,,,,,,,left,0,5.1546,0,2,2,1,1,25000,35000,150,1,384,2022-09-02_09h23.43.619,tareaTDv3,2020.2.5,MacIntel,60,,,,,,,,,,,,,,
,,,,,,,,,,,,,,,,,,,,,,,1,384,2022-09-02_09h23.43.619,tareaTDv3,2020.2.5,MacIntel,60,g,35.6022,left,1,6.1385,0,0,0,27,1,10000,0,61000,150
,,,,,,,,,,,,,,,,,,,,,,,1,384,2022-09-02_09h23.43.619,tareaTDv3,2020.2.5,MacIntel,60,,,right,1,4.4546,0,1,1,82,1,25000,0,75000,90
,,,,,,,,,,,,,,,,,,,,,,,1,384,2022-09-02_09h23.43.619,tareaTDv3,2020.2.5,MacIntel,60,,,left,1,1.9185,0,2,2,59,1,5000,0,151000,150
,,,,,,,,,,,,,,,,,,,,,,,1,384,2022-09-02_09h23.43.619,tareaTDv3,2020.2.5,MacIntel,60,,,left,1,4.3553,0,3,3,68,1,25000,0,125000,9
,,,,,,,,,,,,,,,,,,,,,,,1,384,2022-09-02_09h23.43.619,tareaTDv3,2020.2.5,MacIntel,60,,,left,1,2.3013,0,4,4,26,1,10000,0,39000,150
,,,,,,,,,,,,,,,,,,,,,,,1,384,2022-09-02_09h23.43.619,tareaTDv3,2020.2.5,MacIntel,60,,,right,1,3.7071,0,5,5,72,1,25000,0,75000,31
,,,,,,,,,,,,,,,,,,,,,,,1,384,2022-09-02_09h23.43.619,tareaTDv3,2020.2.5,MacIntel,60,,,left,1,1.4364,0,6,6,32,1,5000,0,54000,5
,,,,,,,,,,,,,,,,,,,,,,,1,384,2022-09-02_09h23.43.619,tareaTDv3,2020.2.5,MacIntel,60,,,right,0,2.8051,0,7,7,24,1,10000,0,149000,89
,,,,,,,,,,,,,,,,,,,,,,,1,384,2022-09-02_09h23.43.619,tareaTDv3,2020.2.5,MacIntel,60,,,left,1,4.4679,0,8,8,10,1,10000,0,21000,31
,,,,,,,,,,,,,,,,,,,,,,,1,384,2022-09-02_09h23.43.619,tareaTDv3,2020.2.5,MacIntel,60,,,left,1,2.2508,0,9,9,54,1,5000,0,150000,90
,,,,,,,,,,,,,,,,,,,,,,,1,384,2022-09-02_09h23.43.619,tareaTDv3,2020.2.5,MacIntel,60,,,left,1,2.4408,0,10,10,8,1,10000,0,111000,10
,,,,,,,,,,,,,,,,,,,,,,,1,384,2022-09-02_09h23.43.619,tareaTDv3,2020.2.5,MacIntel,60,,,left,1,2.4734,0,11,11,74,1,25000,0,150000,29
,,,,,,,,,,,,,,,,,,,,,,,1,384,2022-09-02_09h23.43.619,tareaTDv3,2020.2.5,MacIntel,60,,,right,1,3.4943,0,12,12,29,1,10000,0,151000,151
,,,,,,,,,,,,,,,,,,,,,,,1,384,2022-09-02_09h23.43.619,tareaTDv3,2020.2.5,MacIntel,60,,,right,0,2.1062,0,13,13,80,1,25000,0,35000,90
,,,,,,,,,,,,,,,,,,,,,,,1,384,2022-09-02_09h23.43.619,tareaTDv3,2020.2.5,MacIntel,60,,,left,1,2.2246,0,14,14,77,1,25000,0,75000,59
,,,,,,,,,,,,,,,,,,,,,,,1,384,2022-09-02_09h23.43.619,tareaTDv3,2020.2.5,MacIntel,60,,,right,1,1.9005,0,15,15,34,1,5000,0,151000,4
,,,,,,,,,,,,,,,,,,,,,,,1,384,2022-09-02_09h23.43.619,tareaTDv3,2020.2.5,MacIntel,60,,,right,1,4.0306,0,16,16,61,1,25000,0,55000,6
,,,,,,,,,,,,,,,,,,,,,,,1,384,2022-09-02_09h23.43.619,tareaTDv3,2020.2.5,MacIntel,60,,,left,1,3.133,0,17,17,41,1,5000,0,35000,31
,,,,,,,,,,,,,,,,,,,,,,,1,384,2022-09-02_09h23.43.619,tareaTDv3,2020.2.5,MacIntel,60,,,right,1,1.8683,0,18,18,57,1,5000,0,55000,151
,,,,,,,,,,,,,,,,,,,,,,,1,384,2022-09-02_09h23.43.619,tareaTDv3,2020.2.5,MacIntel,60,,,right,1,1.343,0,19,19,62,1,25000,0,75000,5
,,,,,,,,,,,,,,,,,,,,,,,1,384,2022-09-02_09h23.43.619,tareaTDv3,2020.2.5,MacIntel,60,,,right,1,1.018,0,20,20,49,1,5000,0,149000,59
,,,,,,,,,,,,,,,,,,,,,,,1,384,2022-09-02_09h23.43.619,tareaTDv3,2020.2.5,MacIntel,60,,,right,1,1.4833,0,21,21,38,1,5000,0,104000,10
,,,,,,,,,,,,,,,,,,,,,,,1,384,2022-09-02_09h23.43.619,tareaTDv3,2020.2.5,MacIntel,60,,,right,0,3.6715,0,22,22,81,1,25000,0,55000,90
,,,,,,,,,,,,,,,,,,,,,,,1,384,2022-09-02_09h23.43.619,tareaTDv3,2020.2.5,MacIntel,60,,,left,1,3.3679,0,23,23,60,1,25000,0,35000,5
,,,,,,,,,,,,,,,,,,,,,,,1,384,2022-09-02_09h23.43.619,tareaTDv3,2020.2.5,MacIntel,60,,,left,0,4.204,0,24,24,25,1,10000,0,10000,150
,,,,,,,,,,,,,,,,,,,,,,,1,384,2022-09-02_09h23.43.619,tareaTDv3,2020.2.5,MacIntel,60,,,right,1,1.6519,0,25,25,13,1,10000,0,111000,30
,,,,,,,,,,,,,,,,,,,,,,,1,384,2022-09-02_09h23.43.619,tareaTDv3,2020.2.5,MacIntel,60,,,left,1,2.0522,0,26,26,17,1,10000,0,60000,60
,,,,,,,,,,,,,,,,,,,,,,,1,384,2022-09-02_09h23.43.619,tareaTDv3,2020.2.5,MacIntel,60,,,right,1,5.2986,0,27,27,18,1,10000,0,110000,60
,,,,,,,,,,,,,,,,,,,,,,,1,384,2022-09-02_09h23.43.619,tareaTDv3,2020.2.5,MacIntel,60,,,left,0,1.5601,0,28,28,55,1,5000,0,14000,149
,,,,,,,,,,,,,,,,,,,,,,,1,384,2022-09-02_09h23.43.619,tareaTDv3,2020.2.5,MacIntel,60,,,right,1,1.3581,0,29,29,33,1,5000,0,104000,5
,,,,,,,,,,,,,,,,,,,,,,,1,384,2022-09-02_09h23.43.619,tareaTDv3,2020.2.5,MacIntel,60,,,left,1,5.5756,0,30,30,23,1,10000,0,110000,90
,,,,,,,,,,,,,,,,,,,,,,,1,384,2022-09-02_09h23.43.619,tareaTDv3,2020.2.5,MacIntel,60,,,left,1,3.8715,0,31,31,42,1,5000,0,56000,29
,,,,,,,,,,,,,,,,,,,,,,,1,384,2022-09-02_09h23.43.619,tareaTDv3,2020.2.5,MacIntel,60,,,left,1,2.2684,0,32,32,78,1,25000,0,125000,59
,,,,,,,,,,,,,,,,,,,,,,,1,384,2022-09-02_09h23.43.619,tareaTDv3,2020.2.5,MacIntel,60,,,right,1,1.4384,0,33,33,76,1,25000,0,55000,60
,,,,,,,,,,,,,,,,,,,,,,,1,384,2022-09-02_09h23.43.619,tareaTDv3,2020.2.5,MacIntel,60,,,right,1,1.4427,0,34,34,89,1,25000,0,150000,150
,,,,,,,,,,,,,,,,,,,,,,,1,384,2022-09-02_09h23.43.619,tareaTDv3,2020.2.5,MacIntel,60,,,left,0,6.3608,0,35,35,21,1,10000,0,40000,91
,,,,,,,,,,,,,,,,,,,,,,,1,384,2022-09-02_09h23.43.619,tareaTDv3,2020.2.5,MacIntel,60,,,left,0,2.4862,0,36,36,50,1,5000,0,15000,91
,,,,,,,,,,,,,,,,,,,,,,,1,384,2022-09-02_09h23.43.619,tareaTDv3,2020.2.5,MacIntel,60,,,right,1,2.1217,0,37,37,6,1,10000,0,40000,10
,,,,,,,,,,,,,,,,,,,,,,,1,384,2022-09-02_09h23.43.619,tareaTDv3,2020.2.5,MacIntel,60,,,right,0,2.1417,0,38,38,75,1,25000,0,35000,60
,,,,,,,,,,,,,,,,,,,,,,,1,384,2022-09-02_09h23.43.619,tareaTDv3,2020.2.5,MacIntel,60,,,right,1,1.0376,0,39,39,31,1,5000,0,35000,6
,,,,,,,,,,,,,,,,,,,,,,,1,384,2022-09-02_09h23.43.619,tareaTDv3,2020.2.5,MacIntel,60,,,right,1,5.022,0,40,40,15,1,10000,0,20000,59
,,,,,,,,,,,,,,,,,,,,,,,1,384,2022-09-02_09h23.43.619,tareaTDv3,2020.2.5,MacIntel,60,,,right,1,2.8772,0,41,41,56,1,5000,0,35000,150
,,,,,,,,,,,,,,,,,,,,,,,1,384,2022-09-02_09h23.43.619,tareaTDv3,2020.2.5,MacIntel,60,,,right,1,6.6182,0,42,42,28,1,10000,0,109000,149
,,,,,,,,,,,,,,,,,,,,,,,1,384,2022-09-02_09h23.43.619,tareaTDv3,2020.2.5,MacIntel,60,,,right,0,1.7568,0,43,43,86,1,25000,0,55000,151
,,,,,,,,,,,,,,,,,,,,,,,1,384,2022-09-02_09h23.43.619,tareaTDv3,2020.2.5,MacIntel,60,,,right,1,2.1033,0,44,44,3,1,10000,0,109000,5
,,,,,,,,,,,,,,,,,,,,,,,1,384,2022-09-02_09h23.43.619,tareaTDv3,2020.2.5,MacIntel,60,,,left,1,5.4188,0,45,45,69,1,25000,0,150000,9
,,,,,,,,,,,,,,,,,,,,,,,1,384,2022-09-02_09h23.43.619,tareaTDv3,2020.2.5,MacIntel,60,,,left,1,4.6737,0,46,46,5,1,10000,0,19000,11
,,,,,,,,,,,,,,,,,,,,,,,1,384,2022-09-02_09h23.43.619,tareaTDv3,2020.2.5,MacIntel,60,,,right,1,2.9218,0,47,47,48,1,5000,0,105000,60
,,,,,,,,,,,,,,,,,,,,,,,1,384,2022-09-02_09h23.43.619,tareaTDv3,2020.2.5,MacIntel,60,,,right,1,2.8842,0,48,48,43,1,5000,0,106000,29
,,,,,,,,,,,,,,,,,,,,,,,1,384,2022-09-02_09h23.43.619,tareaTDv3,2020.2.5,MacIntel,60,,,left,1,1.7024,0,49,49,63,1,25000,0,125000,4
,,,,,,,,,,,,,,,,,,,,,,,1,384,2022-09-02_09h23.43.619,tareaTDv3,2020.2.5,MacIntel,60,,,left,1,1.3933,0,50,50,65,1,25000,0,35000,11
,,,,,,,,,,,,,,,,,,,,,,,1,384,2022-09-02_09h23.43.619,tareaTDv3,2020.2.5,MacIntel,60,,,right,1,2.7904,0,51,51,12,1,10000,0,60000,29
,,,,,,,,,,,,,,,,,,,,,,,1,384,2022-09-02_09h23.43.619,tareaTDv3,2020.2.5,MacIntel,60,,,left,1,1.9858,0,52,52,44,1,5000,0,150000,30
,,,,,,,,,,,,,,,,,,,,,,,1,384,2022-09-02_09h23.43.619,tareaTDv3,2020.2.5,MacIntel,60,,,left,0,2.8363,0,53,53,45,1,5000,0,15000,61
,,,,,,,,,,,,,,,,,,,,,,,1,384,2022-09-02_09h23.43.619,tareaTDv3,2020.2.5,MacIntel,60,,,left,1,5.6592,0,54,54,39,1,5000,0,149000,10
,,,,,,,,,,,,,,,,,,,,,,,1,384,2022-09-02_09h23.43.619,tareaTDv3,2020.2.5,MacIntel,60,,,right,1,1.9511,0,55,55,66,1,25000,0,55000,11
,,,,,,,,,,,,,,,,,,,,,,,1,384,2022-09-02_09h23.43.619,tareaTDv3,2020.2.5,MacIntel,60,,,left,1,3.4376,0,56,56,0,1,10000,0,20000,5
,,,,,,,,,,,,,,,,,,,,,,,1,384,2022-09-02_09h23.43.619,tareaTDv3,2020.2.5,MacIntel,60,,,right,1,2.9378,0,57,57,7,1,10000,0,59000,9
,,,,,,,,,,,,,,,,,,,,,,,1,384,2022-09-02_09h23.43.619,tareaTDv3,2020.2.5,MacIntel,60,,,right,1,4.0277,0,58,58,52,1,5000,0,56000,89
,,,,,,,,,,,,,,,,,,,,,,,1,384,2022-09-02_09h23.43.619,tareaTDv3,2020.2.5,MacIntel,60,,,right,1,3.0531,0,59,59,71,1,25000,0,55000,30
,,,,,,,,,,,,,,,,,,,,,,,1,384,2022-09-02_09h23.43.619,tareaTDv3,2020.2.5,MacIntel,60,,,left,1,0.9388,0,60,60,64,1,25000,0,150000,4
,,,,,,,,,,,,,,,,,,,,,,,1,384,2022-09-02_09h23.43.619,tareaTDv3,2020.2.5,MacIntel,60,,,right,1,2.7248,0,61,61,53,1,5000,0,104000,90
,,,,,,,,,,,,,,,,,,,,,,,1,384,2022-09-02_09h23.43.619,tareaTDv3,2020.2.5,MacIntel,60,,,left,1,1.9394,0,62,62,16,1,10000,0,39000,59
,,,,,,,,,,,,,,,,,,,,,,,1,384,2022-09-02_09h23.43.619,tareaTDv3,2020.2.5,MacIntel,60,,,left,1,1.8081,0,63,63,87,1,25000,0,75000,151
,,,,,,,,,,,,,,,,,,,,,,,1,384,2022-09-02_09h23.43.619,tareaTDv3,2020.2.5,MacIntel,60,,,left,1,2.4546,0,64,64,35,1,5000,0,15000,11
,,,,,,,,,,,,,,,,,,,,,,,1,384,2022-09-02_09h23.43.619,tareaTDv3,2020.2.5,MacIntel,60,,,right,1,1.1862,0,65,65,2,1,10000,0,61000,4
,,,,,,,,,,,,,,,,,,,,,,,1,384,2022-09-02_09h23.43.619,tareaTDv3,2020.2.5,MacIntel,60,,,left,1,1.3243,0,66,66,11,1,10000,0,39000,29
,,,,,,,,,,,,,,,,,,,,,,,1,384,2022-09-02_09h23.43.619,tareaTDv3,2020.2.5,MacIntel,60,,,left,1,2.3456,0,67,67,84,1,25000,0,150000,89
,,,,,,,,,,,,,,,,,,,,,,,1,384,2022-09-02_09h23.43.619,tareaTDv3,2020.2.5,MacIntel,60,,,right,1,2.9064,0,68,68,37,1,5000,0,56000,9
,,,,,,,,,,,,,,,,,,,,,,,1,384,2022-09-02_09h23.43.619,tareaTDv3,2020.2.5,MacIntel,60,,,right,1,4.2732,0,69,69,46,1,5000,0,36000,61
,,,,,,,,,,,,,,,,,,,,,,,1,384,2022-09-02_09h23.43.619,tareaTDv3,2020.2.5,MacIntel,60,,,left,1,4.0914,0,70,70,85,1,25000,0,35000,150
,,,,,,,,,,,,,,,,,,,,,,,1,384,2022-09-02_09h23.43.619,tareaTDv3,2020.2.5,MacIntel,60,,,left,1,0.8549,0,71,71,47,1,5000,0,56000,60
,,,,,,,,,,,,,,,,,,,,,,,1,384,2022-09-02_09h23.43.619,tareaTDv3,2020.2.5,MacIntel,60,,,right,1,3.235,0,72,72,83,1,25000,0,125000,89
,,,,,,,,,,,,,,,,,,,,,,,1,384,2022-09-02_09h23.43.619,tareaTDv3,2020.2.5,MacIntel,60,,,right,1,3.3033,0,73,73,67,1,25000,0,75000,10
,,,,,,,,,,,,,,,,,,,,,,,1,384,2022-09-02_09h23.43.619,tareaTDv3,2020.2.5,MacIntel,60,,,left,1,1.9559,0,74,74,9,1,10000,0,151000,11
,,,,,,,,,,,,,,,,,,,,,,,1,384,2022-09-02_09h23.43.619,tareaTDv3,2020.2.5,MacIntel,60,,,left,1,1.4876,0,75,75,30,1,5000,0,16000,4
,,,,,,,,,,,,,,,,,,,,,,,1,384,2022-09-02_09h23.43.619,tareaTDv3,2020.2.5,MacIntel,60,,,left,1,2.4042,0,76,76,14,1,10000,0,150000,30
,,,,,,,,,,,,,,,,,,,,,,,1,384,2022-09-02_09h23.43.619,tareaTDv3,2020.2.5,MacIntel,60,,,right,1,1.044,0,77,77,19,1,10000,0,149000,61
,,,,,,,,,,,,,,,,,,,,,,,1,384,2022-09-02_09h23.43.619,tareaTDv3,2020.2.5,MacIntel,60,,,left,0,3.4539,0,78,78,20,1,10000,0,20000,90
,,,,,,,,,,,,,,,,,,,,,,,1,384,2022-09-02_09h23.43.619,tareaTDv3,2020.2.5,MacIntel,60,,,right,1,1.2356,0,79,79,1,1,10000,0,39000,6
,,,,,,,,,,,,,,,,,,,,,,,1,384,2022-09-02_09h23.43.619,tareaTDv3,2020.2.5,MacIntel,60,,,right,1,1.5859,0,80,80,36,1,5000,0,36000,9
,,,,,,,,,,,,,,,,,,,,,,,1,384,2022-09-02_09h23.43.619,tareaTDv3,2020.2.5,MacIntel,60,,,left,1,3.309,0,81,81,22,1,10000,0,61000,89
,,,,,,,,,,,,,,,,,,,,,,,1,384,2022-09-02_09h23.43.619,tareaTDv3,2020.2.5,MacIntel,60,,,right,0,4.337,0,82,82,51,1,5000,0,35000,89
,,,,,,,,,,,,,,,,,,,,,,,1,384,2022-09-02_09h23.43.619,tareaTDv3,2020.2.5,MacIntel,60,,,right,1,3.4203,0,83,83,70,1,25000,0,35000,30
,,,,,,,,,,,,,,,,,,,,,,,1,384,2022-09-02_09h23.43.619,tareaTDv3,2020.2.5,MacIntel,60,,,right,1,3.2894,0,84,84,79,1,25000,0,150000,61
,,,,,,,,,,,,,,,,,,,,,,,1,384,2022-09-02_09h23.43.619,tareaTDv3,2020.2.5,MacIntel,60,,,right,1,1.7785,0,85,85,88,1,25000,0,125000,149
,,,,,,,,,,,,,,,,,,,,,,,1,384,2022-09-02_09h23.43.619,tareaTDv3,2020.2.5,MacIntel,60,,,left,1,4.1921,0,86,86,4,1,10000,0,150000,5
,,,,,,,,,,,,,,,,,,,,,,,1,384,2022-09-02_09h23.43.619,tareaTDv3,2020.2.5,MacIntel,60,,,left,1,0.9866,0,87,87,73,1,25000,0,125000,31
,,,,,,,,,,,,,,,,,,,,,,,1,384,2022-09-02_09h23.43.619,tareaTDv3,2020.2.5,MacIntel,60,,,right,0,2.7074,0,88,88,40,1,5000,0,14000,31
,,,,,,,,,,,,,,,,,,,,,,,1,384,2022-09-02_09h23.43.619,tareaTDv3,2020.2.5,MacIntel,60,,,right,1,4.1202,0,89,89,58,1,5000,0,106000,152
,,,,,,,,,,,,,,,,,,,,,,,,,,,,,,,,,,,,,,,,,,,
