key1.keys,key1.rt,key2.keys,key2.rt,key2_2.keys,key2_2.rt,key2_3.keys,key2_3.rt,key3.keys,key3.rt,key4.keys,key4.rt,respP.keys,respP.corr,respP.rt,Practice.thisRepN,Practice.thisTrialN,Practice.thisN,Practice.thisIndex,Practice.ran,ssAmount,llAmount,llDelay,session,participant,date,expName,psychopyVersion,OS,frameRate,key5.keys,key5.rt,respT.keys,respT.corr,respT.rt,trials.thisRepN,trials.thisTrialN,trials.thisN,trials.thisIndex,trials.ran,ss_am,ss_del,ll_am,ll_del
space,10.0325,space,12.6444,space,11.0284,space,2.3706,right,12.2611,space,1.1882,left,1.0,4.5423,0.0,0.0,0.0,0.0,1.0,10000.0,109000.0,9.0,25-07-2022,385,2022-07-25_07h47.39.114,tareaTDv3,2020.2.5,Win32,60,,,,,,,,,,,,,,
,,,,,,,,,,,,right,0.0,5.386,0.0,1.0,1.0,2.0,1.0,10000.0,19000.0,89.0,25-07-2022,385,2022-07-25_07h47.39.114,tareaTDv3,2020.2.5,Win32,60,,,,,,,,,,,,,,
,,,,,,,,,,,,right,0.0,4.4069,0.0,2.0,2.0,1.0,1.0,25000.0,35000.0,150.0,25-07-2022,385,2022-07-25_07h47.39.114,tareaTDv3,2020.2.5,Win32,60,,,,,,,,,,,,,,
,,,,,,,,,,,,,,,,,,,,,,,25-07-2022,385,2022-07-25_07h47.39.114,tareaTDv3,2020.2.5,Win32,60,g,16.8846,left,0.0,3.2467,0.0,0.0,0.0,85.0,1.0,25000.0,0.0,35000.0,150.0
,,,,,,,,,,,,,,,,,,,,,,,25-07-2022,385,2022-07-25_07h47.39.114,tareaTDv3,2020.2.5,Win32,60,,,right,1.0,4.8834,0.0,1.0,1.0,52.0,1.0,5000.0,0.0,56000.0,89.0
,,,,,,,,,,,,,,,,,,,,,,,25-07-2022,385,2022-07-25_07h47.39.114,tareaTDv3,2020.2.5,Win32,60,,,right,0.0,4.5674,0.0,2.0,2.0,40.0,1.0,5000.0,0.0,14000.0,31.0
,,,,,,,,,,,,,,,,,,,,,,,25-07-2022,385,2022-07-25_07h47.39.114,tareaTDv3,2020.2.5,Win32,60,,,right,1.0,3.9572,0.0,3.0,3.0,57.0,1.0,5000.0,0.0,55000.0,151.0
,,,,,,,,,,,,,,,,,,,,,,,25-07-2022,385,2022-07-25_07h47.39.114,tareaTDv3,2020.2.5,Win32,60,,,right,1.0,1.9606,0.0,4.0,4.0,84.0,1.0,25000.0,0.0,150000.0,89.0
,,,,,,,,,,,,,,,,,,,,,,,25-07-2022,385,2022-07-25_07h47.39.114,tareaTDv3,2020.2.5,Win32,60,,,left,1.0,5.9913,0.0,5.0,5.0,56.0,1.0,5000.0,0.0,35000.0,150.0
,,,,,,,,,,,,,,,,,,,,,,,25-07-2022,385,2022-07-25_07h47.39.114,tareaTDv3,2020.2.5,Win32,60,,,right,0.0,1.7491,0.0,6.0,6.0,45.0,1.0,5000.0,0.0,15000.0,61.0
,,,,,,,,,,,,,,,,,,,,,,,25-07-2022,385,2022-07-25_07h47.39.114,tareaTDv3,2020.2.5,Win32,60,,,right,1.0,3.1417,0.0,7.0,7.0,0.0,1.0,10000.0,0.0,20000.0,5.0
,,,,,,,,,,,,,,,,,,,,,,,25-07-2022,385,2022-07-25_07h47.39.114,tareaTDv3,2020.2.5,Win32,60,,,right,1.0,2.3308,0.0,8.0,8.0,83.0,1.0,25000.0,0.0,125000.0,89.0
,,,,,,,,,,,,,,,,,,,,,,,25-07-2022,385,2022-07-25_07h47.39.114,tareaTDv3,2020.2.5,Win32,60,,,left,1.0,6.9572,0.0,9.0,9.0,47.0,1.0,5000.0,0.0,56000.0,60.0
,,,,,,,,,,,,,,,,,,,,,,,25-07-2022,385,2022-07-25_07h47.39.114,tareaTDv3,2020.2.5,Win32,60,,,right,0.0,2.6711,0.0,10.0,10.0,25.0,1.0,10000.0,0.0,10000.0,150.0
,,,,,,,,,,,,,,,,,,,,,,,25-07-2022,385,2022-07-25_07h47.39.114,tareaTDv3,2020.2.5,Win32,60,,,right,1.0,3.2633,0.0,11.0,11.0,10.0,1.0,10000.0,0.0,21000.0,31.0
,,,,,,,,,,,,,,,,,,,,,,,25-07-2022,385,2022-07-25_07h47.39.114,tareaTDv3,2020.2.5,Win32,60,,,right,0.0,5.1328,0.0,12.0,12.0,20.0,1.0,10000.0,0.0,20000.0,90.0
,,,,,,,,,,,,,,,,,,,,,,,25-07-2022,385,2022-07-25_07h47.39.114,tareaTDv3,2020.2.5,Win32,60,,,right,1.0,3.7332,0.0,13.0,13.0,65.0,1.0,25000.0,0.0,35000.0,11.0
,,,,,,,,,,,,,,,,,,,,,,,25-07-2022,385,2022-07-25_07h47.39.114,tareaTDv3,2020.2.5,Win32,60,,,left,1.0,1.6844,0.0,14.0,14.0,3.0,1.0,10000.0,0.0,109000.0,5.0
,,,,,,,,,,,,,,,,,,,,,,,25-07-2022,385,2022-07-25_07h47.39.114,tareaTDv3,2020.2.5,Win32,60,,,right,1.0,1.5081,0.0,15.0,15.0,7.0,1.0,10000.0,0.0,59000.0,9.0
,,,,,,,,,,,,,,,,,,,,,,,25-07-2022,385,2022-07-25_07h47.39.114,tareaTDv3,2020.2.5,Win32,60,,,left,1.0,2.4397,0.0,16.0,16.0,60.0,1.0,25000.0,0.0,35000.0,5.0
,,,,,,,,,,,,,,,,,,,,,,,25-07-2022,385,2022-07-25_07h47.39.114,tareaTDv3,2020.2.5,Win32,60,,,left,1.0,2.3325,0.0,17.0,17.0,12.0,1.0,10000.0,0.0,60000.0,29.0
,,,,,,,,,,,,,,,,,,,,,,,25-07-2022,385,2022-07-25_07h47.39.114,tareaTDv3,2020.2.5,Win32,60,,,right,1.0,1.7012,0.0,18.0,18.0,72.0,1.0,25000.0,0.0,75000.0,31.0
,,,,,,,,,,,,,,,,,,,,,,,25-07-2022,385,2022-07-25_07h47.39.114,tareaTDv3,2020.2.5,Win32,60,,,left,1.0,3.2495,0.0,19.0,19.0,68.0,1.0,25000.0,0.0,125000.0,9.0
,,,,,,,,,,,,,,,,,,,,,,,25-07-2022,385,2022-07-25_07h47.39.114,tareaTDv3,2020.2.5,Win32,60,,,right,1.0,6.6923,0.0,20.0,20.0,61.0,1.0,25000.0,0.0,55000.0,6.0
,,,,,,,,,,,,,,,,,,,,,,,25-07-2022,385,2022-07-25_07h47.39.114,tareaTDv3,2020.2.5,Win32,60,,,left,1.0,0.9151,0.0,21.0,21.0,62.0,1.0,25000.0,0.0,75000.0,5.0
,,,,,,,,,,,,,,,,,,,,,,,25-07-2022,385,2022-07-25_07h47.39.114,tareaTDv3,2020.2.5,Win32,60,,,right,0.0,4.3748,0.0,22.0,22.0,51.0,1.0,5000.0,0.0,35000.0,89.0
,,,,,,,,,,,,,,,,,,,,,,,25-07-2022,385,2022-07-25_07h47.39.114,tareaTDv3,2020.2.5,Win32,60,,,left,1.0,1.8541,0.0,23.0,23.0,2.0,1.0,10000.0,0.0,61000.0,4.0
,,,,,,,,,,,,,,,,,,,,,,,25-07-2022,385,2022-07-25_07h47.39.114,tareaTDv3,2020.2.5,Win32,60,,,left,1.0,2.9502,0.0,24.0,24.0,44.0,1.0,5000.0,0.0,150000.0,30.0
,,,,,,,,,,,,,,,,,,,,,,,25-07-2022,385,2022-07-25_07h47.39.114,tareaTDv3,2020.2.5,Win32,60,,,left,0.0,2.1585,0.0,25.0,25.0,75.0,1.0,25000.0,0.0,35000.0,60.0
,,,,,,,,,,,,,,,,,,,,,,,25-07-2022,385,2022-07-25_07h47.39.114,tareaTDv3,2020.2.5,Win32,60,,,right,1.0,2.7805,0.0,26.0,26.0,46.0,1.0,5000.0,0.0,36000.0,61.0
,,,,,,,,,,,,,,,,,,,,,,,25-07-2022,385,2022-07-25_07h47.39.114,tareaTDv3,2020.2.5,Win32,60,,,left,0.0,3.0899,0.0,27.0,27.0,50.0,1.0,5000.0,0.0,15000.0,91.0
,,,,,,,,,,,,,,,,,,,,,,,25-07-2022,385,2022-07-25_07h47.39.114,tareaTDv3,2020.2.5,Win32,60,,,right,1.0,4.0453,0.0,28.0,28.0,21.0,1.0,10000.0,0.0,40000.0,91.0
,,,,,,,,,,,,,,,,,,,,,,,25-07-2022,385,2022-07-25_07h47.39.114,tareaTDv3,2020.2.5,Win32,60,,,left,1.0,2.6701,0.0,29.0,29.0,30.0,1.0,5000.0,0.0,16000.0,4.0
,,,,,,,,,,,,,,,,,,,,,,,25-07-2022,385,2022-07-25_07h47.39.114,tareaTDv3,2020.2.5,Win32,60,,,left,1.0,0.8079,0.0,30.0,30.0,42.0,1.0,5000.0,0.0,56000.0,29.0
,,,,,,,,,,,,,,,,,,,,,,,25-07-2022,385,2022-07-25_07h47.39.114,tareaTDv3,2020.2.5,Win32,60,,,right,1.0,0.8162,0.0,31.0,31.0,79.0,1.0,25000.0,0.0,150000.0,61.0
,,,,,,,,,,,,,,,,,,,,,,,25-07-2022,385,2022-07-25_07h47.39.114,tareaTDv3,2020.2.5,Win32,60,,,left,1.0,0.6835,0.0,32.0,32.0,6.0,1.0,10000.0,0.0,40000.0,10.0
,,,,,,,,,,,,,,,,,,,,,,,25-07-2022,385,2022-07-25_07h47.39.114,tareaTDv3,2020.2.5,Win32,60,,,left,1.0,2.5155,0.0,33.0,33.0,82.0,1.0,25000.0,0.0,75000.0,90.0
,,,,,,,,,,,,,,,,,,,,,,,25-07-2022,385,2022-07-25_07h47.39.114,tareaTDv3,2020.2.5,Win32,60,,,right,1.0,0.9901,0.0,34.0,34.0,1.0,1.0,10000.0,0.0,39000.0,6.0
,,,,,,,,,,,,,,,,,,,,,,,25-07-2022,385,2022-07-25_07h47.39.114,tareaTDv3,2020.2.5,Win32,60,,,right,0.0,2.6743,0.0,35.0,35.0,86.0,1.0,25000.0,0.0,55000.0,151.0
,,,,,,,,,,,,,,,,,,,,,,,25-07-2022,385,2022-07-25_07h47.39.114,tareaTDv3,2020.2.5,Win32,60,,,left,1.0,2.4613,0.0,36.0,36.0,24.0,1.0,10000.0,0.0,149000.0,89.0
,,,,,,,,,,,,,,,,,,,,,,,25-07-2022,385,2022-07-25_07h47.39.114,tareaTDv3,2020.2.5,Win32,60,,,left,1.0,2.4339,0.0,37.0,37.0,19.0,1.0,10000.0,0.0,149000.0,61.0
,,,,,,,,,,,,,,,,,,,,,,,25-07-2022,385,2022-07-25_07h47.39.114,tareaTDv3,2020.2.5,Win32,60,,,left,1.0,0.5342,0.0,38.0,38.0,31.0,1.0,5000.0,0.0,35000.0,6.0
,,,,,,,,,,,,,,,,,,,,,,,25-07-2022,385,2022-07-25_07h47.39.114,tareaTDv3,2020.2.5,Win32,60,,,left,1.0,2.3119,0.0,39.0,39.0,88.0,1.0,25000.0,0.0,125000.0,149.0
,,,,,,,,,,,,,,,,,,,,,,,25-07-2022,385,2022-07-25_07h47.39.114,tareaTDv3,2020.2.5,Win32,60,,,right,1.0,4.4703,0.0,40.0,40.0,22.0,1.0,10000.0,0.0,61000.0,89.0
,,,,,,,,,,,,,,,,,,,,,,,25-07-2022,385,2022-07-25_07h47.39.114,tareaTDv3,2020.2.5,Win32,60,,,right,1.0,1.1932,0.0,41.0,41.0,63.0,1.0,25000.0,0.0,125000.0,4.0
,,,,,,,,,,,,,,,,,,,,,,,25-07-2022,385,2022-07-25_07h47.39.114,tareaTDv3,2020.2.5,Win32,60,,,right,1.0,0.8099,0.0,42.0,42.0,54.0,1.0,5000.0,0.0,150000.0,90.0
,,,,,,,,,,,,,,,,,,,,,,,25-07-2022,385,2022-07-25_07h47.39.114,tareaTDv3,2020.2.5,Win32,60,,,left,1.0,1.5435,0.0,43.0,43.0,78.0,1.0,25000.0,0.0,125000.0,59.0
,,,,,,,,,,,,,,,,,,,,,,,25-07-2022,385,2022-07-25_07h47.39.114,tareaTDv3,2020.2.5,Win32,60,,,left,1.0,0.9922,0.0,44.0,44.0,8.0,1.0,10000.0,0.0,111000.0,10.0
,,,,,,,,,,,,,,,,,,,,,,,25-07-2022,385,2022-07-25_07h47.39.114,tareaTDv3,2020.2.5,Win32,60,,,right,1.0,0.6983,0.0,45.0,45.0,67.0,1.0,25000.0,0.0,75000.0,10.0
,,,,,,,,,,,,,,,,,,,,,,,25-07-2022,385,2022-07-25_07h47.39.114,tareaTDv3,2020.2.5,Win32,60,,,right,0.0,2.0122,0.0,46.0,46.0,55.0,1.0,5000.0,0.0,14000.0,149.0
,,,,,,,,,,,,,,,,,,,,,,,25-07-2022,385,2022-07-25_07h47.39.114,tareaTDv3,2020.2.5,Win32,60,,,right,1.0,1.3182,0.0,47.0,47.0,33.0,1.0,5000.0,0.0,104000.0,5.0
,,,,,,,,,,,,,,,,,,,,,,,25-07-2022,385,2022-07-25_07h47.39.114,tareaTDv3,2020.2.5,Win32,60,,,right,1.0,1.018,0.0,48.0,48.0,11.0,1.0,10000.0,0.0,39000.0,29.0
,,,,,,,,,,,,,,,,,,,,,,,25-07-2022,385,2022-07-25_07h47.39.114,tareaTDv3,2020.2.5,Win32,60,,,right,1.0,0.7222,0.0,49.0,49.0,39.0,1.0,5000.0,0.0,149000.0,10.0
,,,,,,,,,,,,,,,,,,,,,,,25-07-2022,385,2022-07-25_07h47.39.114,tareaTDv3,2020.2.5,Win32,60,,,right,1.0,2.4597,0.0,50.0,50.0,17.0,1.0,10000.0,0.0,60000.0,60.0
,,,,,,,,,,,,,,,,,,,,,,,25-07-2022,385,2022-07-25_07h47.39.114,tareaTDv3,2020.2.5,Win32,60,,,right,1.0,1.4779,0.0,51.0,51.0,28.0,1.0,10000.0,0.0,109000.0,149.0
,,,,,,,,,,,,,,,,,,,,,,,25-07-2022,385,2022-07-25_07h47.39.114,tareaTDv3,2020.2.5,Win32,60,,,left,1.0,2.3005,0.0,52.0,52.0,29.0,1.0,10000.0,0.0,151000.0,151.0
,,,,,,,,,,,,,,,,,,,,,,,25-07-2022,385,2022-07-25_07h47.39.114,tareaTDv3,2020.2.5,Win32,60,,,right,0.0,4.8345,0.0,53.0,53.0,15.0,1.0,10000.0,0.0,20000.0,59.0
,,,,,,,,,,,,,,,,,,,,,,,25-07-2022,385,2022-07-25_07h47.39.114,tareaTDv3,2020.2.5,Win32,60,,,right,1.0,3.5849,0.0,54.0,54.0,89.0,1.0,25000.0,0.0,150000.0,150.0
,,,,,,,,,,,,,,,,,,,,,,,25-07-2022,385,2022-07-25_07h47.39.114,tareaTDv3,2020.2.5,Win32,60,,,left,1.0,0.4432,0.0,55.0,55.0,34.0,1.0,5000.0,0.0,151000.0,4.0
,,,,,,,,,,,,,,,,,,,,,,,25-07-2022,385,2022-07-25_07h47.39.114,tareaTDv3,2020.2.5,Win32,60,,,right,1.0,1.2248,0.0,56.0,56.0,53.0,1.0,5000.0,0.0,104000.0,90.0
,,,,,,,,,,,,,,,,,,,,,,,25-07-2022,385,2022-07-25_07h47.39.114,tareaTDv3,2020.2.5,Win32,60,,,right,0.0,1.6604,0.0,57.0,57.0,80.0,1.0,25000.0,0.0,35000.0,90.0
,,,,,,,,,,,,,,,,,,,,,,,25-07-2022,385,2022-07-25_07h47.39.114,tareaTDv3,2020.2.5,Win32,60,,,right,1.0,0.704,0.0,58.0,58.0,13.0,1.0,10000.0,0.0,111000.0,30.0
,,,,,,,,,,,,,,,,,,,,,,,25-07-2022,385,2022-07-25_07h47.39.114,tareaTDv3,2020.2.5,Win32,60,,,left,1.0,0.7327,0.0,59.0,59.0,69.0,1.0,25000.0,0.0,150000.0,9.0
,,,,,,,,,,,,,,,,,,,,,,,25-07-2022,385,2022-07-25_07h47.39.114,tareaTDv3,2020.2.5,Win32,60,,,left,1.0,0.7418,0.0,60.0,60.0,59.0,1.0,5000.0,0.0,151000.0,150.0
,,,,,,,,,,,,,,,,,,,,,,,25-07-2022,385,2022-07-25_07h47.39.114,tareaTDv3,2020.2.5,Win32,60,,,right,1.0,1.1371,0.0,61.0,61.0,66.0,1.0,25000.0,0.0,55000.0,11.0
,,,,,,,,,,,,,,,,,,,,,,,25-07-2022,385,2022-07-25_07h47.39.114,tareaTDv3,2020.2.5,Win32,60,,,left,1.0,1.2916,0.0,62.0,62.0,49.0,1.0,5000.0,0.0,149000.0,59.0
,,,,,,,,,,,,,,,,,,,,,,,25-07-2022,385,2022-07-25_07h47.39.114,tareaTDv3,2020.2.5,Win32,60,,,left,1.0,0.9153,0.0,63.0,63.0,38.0,1.0,5000.0,0.0,104000.0,10.0
,,,,,,,,,,,,,,,,,,,,,,,25-07-2022,385,2022-07-25_07h47.39.114,tareaTDv3,2020.2.5,Win32,60,,,right,1.0,1.1848,0.0,64.0,64.0,18.0,1.0,10000.0,0.0,110000.0,60.0
,,,,,,,,,,,,,,,,,,,,,,,25-07-2022,385,2022-07-25_07h47.39.114,tareaTDv3,2020.2.5,Win32,60,,,left,1.0,2.173,0.0,65.0,65.0,5.0,1.0,10000.0,0.0,19000.0,11.0
,,,,,,,,,,,,,,,,,,,,,,,25-07-2022,385,2022-07-25_07h47.39.114,tareaTDv3,2020.2.5,Win32,60,,,right,1.0,1.0941,0.0,66.0,66.0,36.0,1.0,5000.0,0.0,36000.0,9.0
,,,,,,,,,,,,,,,,,,,,,,,25-07-2022,385,2022-07-25_07h47.39.114,tareaTDv3,2020.2.5,Win32,60,,,right,1.0,3.0543,0.0,67.0,67.0,71.0,1.0,25000.0,0.0,55000.0,30.0
,,,,,,,,,,,,,,,,,,,,,,,25-07-2022,385,2022-07-25_07h47.39.114,tareaTDv3,2020.2.5,Win32,60,,,right,1.0,0.8347,0.0,68.0,68.0,74.0,1.0,25000.0,0.0,150000.0,29.0
,,,,,,,,,,,,,,,,,,,,,,,25-07-2022,385,2022-07-25_07h47.39.114,tareaTDv3,2020.2.5,Win32,60,,,right,1.0,0.6611,0.0,69.0,69.0,43.0,1.0,5000.0,0.0,106000.0,29.0
,,,,,,,,,,,,,,,,,,,,,,,25-07-2022,385,2022-07-25_07h47.39.114,tareaTDv3,2020.2.5,Win32,60,,,left,1.0,1.028,0.0,70.0,70.0,73.0,1.0,25000.0,0.0,125000.0,31.0
,,,,,,,,,,,,,,,,,,,,,,,25-07-2022,385,2022-07-25_07h47.39.114,tareaTDv3,2020.2.5,Win32,60,,,right,1.0,0.5219,0.0,71.0,71.0,4.0,1.0,10000.0,0.0,150000.0,5.0
,,,,,,,,,,,,,,,,,,,,,,,25-07-2022,385,2022-07-25_07h47.39.114,tareaTDv3,2020.2.5,Win32,60,,,right,1.0,0.5619,0.0,72.0,72.0,9.0,1.0,10000.0,0.0,151000.0,11.0
,,,,,,,,,,,,,,,,,,,,,,,25-07-2022,385,2022-07-25_07h47.39.114,tareaTDv3,2020.2.5,Win32,60,,,right,1.0,0.635,0.0,73.0,73.0,32.0,1.0,5000.0,0.0,54000.0,5.0
,,,,,,,,,,,,,,,,,,,,,,,25-07-2022,385,2022-07-25_07h47.39.114,tareaTDv3,2020.2.5,Win32,60,,,right,0.0,1.9938,0.0,74.0,74.0,70.0,1.0,25000.0,0.0,35000.0,30.0
,,,,,,,,,,,,,,,,,,,,,,,25-07-2022,385,2022-07-25_07h47.39.114,tareaTDv3,2020.2.5,Win32,60,,,left,1.0,2.6077,0.0,75.0,75.0,76.0,1.0,25000.0,0.0,55000.0,60.0
,,,,,,,,,,,,,,,,,,,,,,,25-07-2022,385,2022-07-25_07h47.39.114,tareaTDv3,2020.2.5,Win32,60,,,right,1.0,0.9939,0.0,76.0,76.0,64.0,1.0,25000.0,0.0,150000.0,4.0
,,,,,,,,,,,,,,,,,,,,,,,25-07-2022,385,2022-07-25_07h47.39.114,tareaTDv3,2020.2.5,Win32,60,,,left,1.0,0.887,0.0,77.0,77.0,14.0,1.0,10000.0,0.0,150000.0,30.0
,,,,,,,,,,,,,,,,,,,,,,,25-07-2022,385,2022-07-25_07h47.39.114,tareaTDv3,2020.2.5,Win32,60,,,right,1.0,0.5881,0.0,78.0,78.0,87.0,1.0,25000.0,0.0,75000.0,151.0
,,,,,,,,,,,,,,,,,,,,,,,25-07-2022,385,2022-07-25_07h47.39.114,tareaTDv3,2020.2.5,Win32,60,,,left,1.0,1.0493,0.0,79.0,79.0,37.0,1.0,5000.0,0.0,56000.0,9.0
,,,,,,,,,,,,,,,,,,,,,,,25-07-2022,385,2022-07-25_07h47.39.114,tareaTDv3,2020.2.5,Win32,60,,,right,1.0,1.4013,0.0,80.0,80.0,58.0,1.0,5000.0,0.0,106000.0,152.0
,,,,,,,,,,,,,,,,,,,,,,,25-07-2022,385,2022-07-25_07h47.39.114,tareaTDv3,2020.2.5,Win32,60,,,left,1.0,6.98,0.0,81.0,81.0,27.0,1.0,10000.0,0.0,61000.0,150.0
,,,,,,,,,,,,,,,,,,,,,,,25-07-2022,385,2022-07-25_07h47.39.114,tareaTDv3,2020.2.5,Win32,60,,,right,0.0,5.272,0.0,82.0,82.0,81.0,1.0,25000.0,0.0,55000.0,90.0
,,,,,,,,,,,,,,,,,,,,,,,25-07-2022,385,2022-07-25_07h47.39.114,tareaTDv3,2020.2.5,Win32,60,,,right,0.0,2.3143,0.0,83.0,83.0,26.0,1.0,10000.0,0.0,39000.0,150.0
,,,,,,,,,,,,,,,,,,,,,,,25-07-2022,385,2022-07-25_07h47.39.114,tareaTDv3,2020.2.5,Win32,60,,,right,1.0,1.9103,0.0,84.0,84.0,77.0,1.0,25000.0,0.0,75000.0,59.0
,,,,,,,,,,,,,,,,,,,,,,,25-07-2022,385,2022-07-25_07h47.39.114,tareaTDv3,2020.2.5,Win32,60,,,right,1.0,0.761,0.0,85.0,85.0,35.0,1.0,5000.0,0.0,15000.0,11.0
,,,,,,,,,,,,,,,,,,,,,,,25-07-2022,385,2022-07-25_07h47.39.114,tareaTDv3,2020.2.5,Win32,60,,,right,1.0,0.6247,0.0,86.0,86.0,48.0,1.0,5000.0,0.0,105000.0,60.0
,,,,,,,,,,,,,,,,,,,,,,,25-07-2022,385,2022-07-25_07h47.39.114,tareaTDv3,2020.2.5,Win32,60,,,left,1.0,6.1117,0.0,87.0,87.0,16.0,1.0,10000.0,0.0,39000.0,59.0
,,,,,,,,,,,,,,,,,,,,,,,25-07-2022,385,2022-07-25_07h47.39.114,tareaTDv3,2020.2.5,Win32,60,,,left,1.0,2.1032,0.0,88.0,88.0,41.0,1.0,5000.0,0.0,35000.0,31.0
,,,,,,,,,,,,,,,,,,,,,,,25-07-2022,385,2022-07-25_07h47.39.114,tareaTDv3,2020.2.5,Win32,60,,,left,1.0,1.9942,0.0,89.0,89.0,23.0,1.0,10000.0,0.0,110000.0,90.0
