key1.keys,key1.rt,key2.keys,key2.rt,key2_2.keys,key2_2.rt,key2_3.keys,key2_3.rt,key3.keys,key3.rt,key4.keys,key4.rt,respP.keys,respP.corr,respP.rt,Practice.thisRepN,Practice.thisTrialN,Practice.thisN,Practice.thisIndex,Practice.ran,ssAmount,llAmount,llDelay,session,participant,date,expName,psychopyVersion,OS,frameRate,key5.keys,key5.rt,respT.keys,respT.corr,respT.rt,trials.thisRepN,trials.thisTrialN,trials.thisN,trials.thisIndex,trials.ran,ss_am,ss_del,ll_am,ll_del
space,3.71771,space,0.23003,space,0.13345,space,0.335715,right,134.19035,space,1.94073,right,0.0,3.704715,0.0,0.0,0.0,1.0,1.0,25000.0,35000.0,150.0,2,392,2020-11-11_11h27.20.066,tareaTDv3,2020.2.5,MacIntel,60,,,,,,,,,,,,,,
,,,,,,,,,,,,left,1.0,2.90814,0.0,1.0,1.0,0.0,1.0,10000.0,109000.0,9.0,2,392,2020-11-11_11h27.20.066,tareaTDv3,2020.2.5,MacIntel,60,,,,,,,,,,,,,,
,,,,,,,,,,,,left,0.0,2.71455,0.0,2.0,2.0,2.0,1.0,10000.0,19000.0,89.0,2,392,2020-11-11_11h27.20.066,tareaTDv3,2020.2.5,MacIntel,60,,,,,,,,,,,,,,
,,,,,,,,,,,,,,,,,,,,,,,2,392,2020-11-11_11h27.20.066,tareaTDv3,2020.2.5,MacIntel,60,g,129.586775,left,1.0,3.712495,0.0,0.0,0.0,47.0,1.0,5000.0,0.0,56000.0,60.0
,,,,,,,,,,,,,,,,,,,,,,,2,392,2020-11-11_11h27.20.066,tareaTDv3,2020.2.5,MacIntel,60,,,right,1.0,2.099995,0.0,1.0,1.0,38.0,1.0,5000.0,0.0,104000.0,10.0
,,,,,,,,,,,,,,,,,,,,,,,2,392,2020-11-11_11h27.20.066,tareaTDv3,2020.2.5,MacIntel,60,,,right,0.0,2.9678,0.0,2.0,2.0,5.0,1.0,10000.0,0.0,19000.0,11.0
,,,,,,,,,,,,,,,,,,,,,,,2,392,2020-11-11_11h27.20.066,tareaTDv3,2020.2.5,MacIntel,60,,,left,1.0,1.52585,0.0,3.0,3.0,63.0,1.0,25000.0,0.0,125000.0,4.0
,,,,,,,,,,,,,,,,,,,,,,,2,392,2020-11-11_11h27.20.066,tareaTDv3,2020.2.5,MacIntel,60,,,right,0.0,5.019305,0.0,4.0,4.0,10.0,1.0,10000.0,0.0,21000.0,31.0
,,,,,,,,,,,,,,,,,,,,,,,2,392,2020-11-11_11h27.20.066,tareaTDv3,2020.2.5,MacIntel,60,,,left,1.0,2.365215,0.0,5.0,5.0,0.0,1.0,10000.0,0.0,20000.0,5.0
,,,,,,,,,,,,,,,,,,,,,,,2,392,2020-11-11_11h27.20.066,tareaTDv3,2020.2.5,MacIntel,60,,,right,1.0,2.60209,0.0,6.0,6.0,39.0,1.0,5000.0,0.0,149000.0,10.0
,,,,,,,,,,,,,,,,,,,,,,,2,392,2020-11-11_11h27.20.066,tareaTDv3,2020.2.5,MacIntel,60,,,left,0.0,2.13542,0.0,7.0,7.0,75.0,1.0,25000.0,0.0,35000.0,60.0
,,,,,,,,,,,,,,,,,,,,,,,2,392,2020-11-11_11h27.20.066,tareaTDv3,2020.2.5,MacIntel,60,,,right,0.0,2.188765,0.0,8.0,8.0,80.0,1.0,25000.0,0.0,35000.0,90.0
,,,,,,,,,,,,,,,,,,,,,,,2,392,2020-11-11_11h27.20.066,tareaTDv3,2020.2.5,MacIntel,60,,,right,0.0,2.672625,0.0,9.0,9.0,58.0,1.0,5000.0,0.0,106000.0,152.0
,,,,,,,,,,,,,,,,,,,,,,,2,392,2020-11-11_11h27.20.066,tareaTDv3,2020.2.5,MacIntel,60,,,right,0.0,2.64405,0.0,10.0,10.0,21.0,1.0,10000.0,0.0,40000.0,91.0
,,,,,,,,,,,,,,,,,,,,,,,2,392,2020-11-11_11h27.20.066,tareaTDv3,2020.2.5,MacIntel,60,,,right,0.0,2.53817,0.0,11.0,11.0,26.0,1.0,10000.0,0.0,39000.0,150.0
,,,,,,,,,,,,,,,,,,,,,,,2,392,2020-11-11_11h27.20.066,tareaTDv3,2020.2.5,MacIntel,60,,,right,1.0,2.74331,0.0,12.0,12.0,3.0,1.0,10000.0,0.0,109000.0,5.0
,,,,,,,,,,,,,,,,,,,,,,,2,392,2020-11-11_11h27.20.066,tareaTDv3,2020.2.5,MacIntel,60,,,left,1.0,5.08754,0.0,13.0,13.0,82.0,1.0,25000.0,0.0,75000.0,90.0
,,,,,,,,,,,,,,,,,,,,,,,2,392,2020-11-11_11h27.20.066,tareaTDv3,2020.2.5,MacIntel,60,,,right,1.0,6.449295,0.0,14.0,14.0,33.0,1.0,5000.0,0.0,104000.0,5.0
,,,,,,,,,,,,,,,,,,,,,,,2,392,2020-11-11_11h27.20.066,tareaTDv3,2020.2.5,MacIntel,60,,,right,0.0,6.68155,0.0,15.0,15.0,48.0,1.0,5000.0,0.0,105000.0,60.0
,,,,,,,,,,,,,,,,,,,,,,,2,392,2020-11-11_11h27.20.066,tareaTDv3,2020.2.5,MacIntel,60,,,left,1.0,5.92351,0.0,16.0,16.0,7.0,1.0,10000.0,0.0,59000.0,9.0
,,,,,,,,,,,,,,,,,,,,,,,2,392,2020-11-11_11h27.20.066,tareaTDv3,2020.2.5,MacIntel,60,,,left,1.0,7.889615,0.0,17.0,17.0,17.0,1.0,10000.0,0.0,60000.0,60.0
,,,,,,,,,,,,,,,,,,,,,,,2,392,2020-11-11_11h27.20.066,tareaTDv3,2020.2.5,MacIntel,60,,,right,0.0,9.99828,0.0,18.0,18.0,19.0,1.0,10000.0,0.0,149000.0,61.0
,,,,,,,,,,,,,,,,,,,,,,,2,392,2020-11-11_11h27.20.066,tareaTDv3,2020.2.5,MacIntel,60,,,right,0.0,7.88242,0.0,19.0,19.0,46.0,1.0,5000.0,0.0,36000.0,61.0
,,,,,,,,,,,,,,,,,,,,,,,2,392,2020-11-11_11h27.20.066,tareaTDv3,2020.2.5,MacIntel,60,,,right,0.0,1.692385,0.0,20.0,20.0,77.0,1.0,25000.0,0.0,75000.0,59.0
,,,,,,,,,,,,,,,,,,,,,,,2,392,2020-11-11_11h27.20.066,tareaTDv3,2020.2.5,MacIntel,60,,,left,0.0,4.184975,0.0,21.0,21.0,76.0,1.0,25000.0,0.0,55000.0,60.0
,,,,,,,,,,,,,,,,,,,,,,,2,392,2020-11-11_11h27.20.066,tareaTDv3,2020.2.5,MacIntel,60,,,left,0.0,1.92121,0.0,22.0,22.0,49.0,1.0,5000.0,0.0,149000.0,59.0
,,,,,,,,,,,,,,,,,,,,,,,2,392,2020-11-11_11h27.20.066,tareaTDv3,2020.2.5,MacIntel,60,,,left,1.0,5.35175,0.0,23.0,23.0,30.0,1.0,5000.0,0.0,16000.0,4.0
,,,,,,,,,,,,,,,,,,,,,,,2,392,2020-11-11_11h27.20.066,tareaTDv3,2020.2.5,MacIntel,60,,,right,1.0,13.47672,0.0,24.0,24.0,44.0,1.0,5000.0,0.0,150000.0,30.0
,,,,,,,,,,,,,,,,,,,,,,,2,392,2020-11-11_11h27.20.066,tareaTDv3,2020.2.5,MacIntel,60,,,left,0.0,4.132875,0.0,25.0,25.0,55.0,1.0,5000.0,0.0,14000.0,149.0
,,,,,,,,,,,,,,,,,,,,,,,2,392,2020-11-11_11h27.20.066,tareaTDv3,2020.2.5,MacIntel,60,,,left,1.0,15.157825,0.0,26.0,26.0,4.0,1.0,10000.0,0.0,150000.0,5.0
,,,,,,,,,,,,,,,,,,,,,,,2,392,2020-11-11_11h27.20.066,tareaTDv3,2020.2.5,MacIntel,60,,,left,1.0,1.953055,0.0,27.0,27.0,31.0,1.0,5000.0,0.0,35000.0,6.0
,,,,,,,,,,,,,,,,,,,,,,,2,392,2020-11-11_11h27.20.066,tareaTDv3,2020.2.5,MacIntel,60,,,right,1.0,2.657745,0.0,28.0,28.0,73.0,1.0,25000.0,0.0,125000.0,31.0
,,,,,,,,,,,,,,,,,,,,,,,2,392,2020-11-11_11h27.20.066,tareaTDv3,2020.2.5,MacIntel,60,,,right,0.0,3.76765,0.0,29.0,29.0,56.0,1.0,5000.0,0.0,35000.0,150.0
,,,,,,,,,,,,,,,,,,,,,,,2,392,2020-11-11_11h27.20.066,tareaTDv3,2020.2.5,MacIntel,60,,,left,1.0,4.749365,0.0,30.0,30.0,35.0,1.0,5000.0,0.0,15000.0,11.0
,,,,,,,,,,,,,,,,,,,,,,,2,392,2020-11-11_11h27.20.066,tareaTDv3,2020.2.5,MacIntel,60,,,right,1.0,3.535265,0.0,31.0,31.0,13.0,1.0,10000.0,0.0,111000.0,30.0
,,,,,,,,,,,,,,,,,,,,,,,2,392,2020-11-11_11h27.20.066,tareaTDv3,2020.2.5,MacIntel,60,,,left,0.0,13.689085,0.0,32.0,32.0,71.0,1.0,25000.0,0.0,55000.0,30.0
,,,,,,,,,,,,,,,,,,,,,,,2,392,2020-11-11_11h27.20.066,tareaTDv3,2020.2.5,MacIntel,60,,,left,0.0,2.539685,0.0,33.0,33.0,20.0,1.0,10000.0,0.0,20000.0,90.0
,,,,,,,,,,,,,,,,,,,,,,,2,392,2020-11-11_11h27.20.066,tareaTDv3,2020.2.5,MacIntel,60,,,left,1.0,6.43963,0.0,34.0,34.0,42.0,1.0,5000.0,0.0,56000.0,29.0
,,,,,,,,,,,,,,,,,,,,,,,2,392,2020-11-11_11h27.20.066,tareaTDv3,2020.2.5,MacIntel,60,,,right,1.0,3.79865,0.0,35.0,35.0,9.0,1.0,10000.0,0.0,151000.0,11.0
,,,,,,,,,,,,,,,,,,,,,,,2,392,2020-11-11_11h27.20.066,tareaTDv3,2020.2.5,MacIntel,60,,,left,0.0,3.65901,0.0,36.0,36.0,16.0,1.0,10000.0,0.0,39000.0,59.0
,,,,,,,,,,,,,,,,,,,,,,,2,392,2020-11-11_11h27.20.066,tareaTDv3,2020.2.5,MacIntel,60,,,right,1.0,4.105475,0.0,37.0,37.0,43.0,1.0,5000.0,0.0,106000.0,29.0
,,,,,,,,,,,,,,,,,,,,,,,2,392,2020-11-11_11h27.20.066,tareaTDv3,2020.2.5,MacIntel,60,,,left,0.0,3.859545,0.0,38.0,38.0,84.0,1.0,25000.0,0.0,150000.0,89.0
,,,,,,,,,,,,,,,,,,,,,,,2,392,2020-11-11_11h27.20.066,tareaTDv3,2020.2.5,MacIntel,60,,,right,0.0,1.65376,0.0,39.0,39.0,57.0,1.0,5000.0,0.0,55000.0,151.0
,,,,,,,,,,,,,,,,,,,,,,,2,392,2020-11-11_11h27.20.066,tareaTDv3,2020.2.5,MacIntel,60,,,left,1.0,2.69403,0.0,40.0,40.0,69.0,1.0,25000.0,0.0,150000.0,9.0
,,,,,,,,,,,,,,,,,,,,,,,2,392,2020-11-11_11h27.20.066,tareaTDv3,2020.2.5,MacIntel,60,,,left,1.0,3.922755,0.0,41.0,41.0,14.0,1.0,10000.0,0.0,150000.0,30.0
,,,,,,,,,,,,,,,,,,,,,,,2,392,2020-11-11_11h27.20.066,tareaTDv3,2020.2.5,MacIntel,60,,,right,1.0,6.39201,0.0,42.0,42.0,37.0,1.0,5000.0,0.0,56000.0,9.0
,,,,,,,,,,,,,,,,,,,,,,,2,392,2020-11-11_11h27.20.066,tareaTDv3,2020.2.5,MacIntel,60,,,left,1.0,2.50085,0.0,43.0,43.0,41.0,1.0,5000.0,0.0,35000.0,31.0
,,,,,,,,,,,,,,,,,,,,,,,2,392,2020-11-11_11h27.20.066,tareaTDv3,2020.2.5,MacIntel,60,,,left,0.0,2.18819,0.0,44.0,44.0,22.0,1.0,10000.0,0.0,61000.0,89.0
,,,,,,,,,,,,,,,,,,,,,,,2,392,2020-11-11_11h27.20.066,tareaTDv3,2020.2.5,MacIntel,60,,,left,0.0,3.19706,0.0,45.0,45.0,87.0,1.0,25000.0,0.0,75000.0,151.0
,,,,,,,,,,,,,,,,,,,,,,,2,392,2020-11-11_11h27.20.066,tareaTDv3,2020.2.5,MacIntel,60,,,left,0.0,4.70578,0.0,46.0,46.0,11.0,1.0,10000.0,0.0,39000.0,29.0
,,,,,,,,,,,,,,,,,,,,,,,2,392,2020-11-11_11h27.20.066,tareaTDv3,2020.2.5,MacIntel,60,,,left,1.0,16.051435,0.0,47.0,47.0,2.0,1.0,10000.0,0.0,61000.0,4.0
,,,,,,,,,,,,,,,,,,,,,,,2,392,2020-11-11_11h27.20.066,tareaTDv3,2020.2.5,MacIntel,60,,,left,1.0,18.334155,0.0,48.0,48.0,29.0,1.0,10000.0,0.0,151000.0,151.0
,,,,,,,,,,,,,,,,,,,,,,,2,392,2020-11-11_11h27.20.066,tareaTDv3,2020.2.5,MacIntel,60,,,right,0.0,12.8144,0.0,49.0,49.0,25.0,1.0,10000.0,0.0,10000.0,150.0
,,,,,,,,,,,,,,,,,,,,,,,2,392,2020-11-11_11h27.20.066,tareaTDv3,2020.2.5,MacIntel,60,,,left,0.0,11.78953,0.0,50.0,50.0,18.0,1.0,10000.0,0.0,110000.0,60.0
,,,,,,,,,,,,,,,,,,,,,,,2,392,2020-11-11_11h27.20.066,tareaTDv3,2020.2.5,MacIntel,60,,,right,1.0,3.08797,0.0,51.0,51.0,74.0,1.0,25000.0,0.0,150000.0,29.0
,,,,,,,,,,,,,,,,,,,,,,,2,392,2020-11-11_11h27.20.066,tareaTDv3,2020.2.5,MacIntel,60,,,right,1.0,1.49274,0.0,52.0,52.0,34.0,1.0,5000.0,0.0,151000.0,4.0
,,,,,,,,,,,,,,,,,,,,,,,2,392,2020-11-11_11h27.20.066,tareaTDv3,2020.2.5,MacIntel,60,,,left,0.0,1.84377,0.0,53.0,53.0,51.0,1.0,5000.0,0.0,35000.0,89.0
,,,,,,,,,,,,,,,,,,,,,,,2,392,2020-11-11_11h27.20.066,tareaTDv3,2020.2.5,MacIntel,60,,,left,1.0,4.933025,0.0,54.0,54.0,67.0,1.0,25000.0,0.0,75000.0,10.0
,,,,,,,,,,,,,,,,,,,,,,,2,392,2020-11-11_11h27.20.066,tareaTDv3,2020.2.5,MacIntel,60,,,left,1.0,3.631625,0.0,55.0,55.0,36.0,1.0,5000.0,0.0,36000.0,9.0
,,,,,,,,,,,,,,,,,,,,,,,2,392,2020-11-11_11h27.20.066,tareaTDv3,2020.2.5,MacIntel,60,,,right,0.0,4.63765,0.0,56.0,56.0,78.0,1.0,25000.0,0.0,125000.0,59.0
,,,,,,,,,,,,,,,,,,,,,,,2,392,2020-11-11_11h27.20.066,tareaTDv3,2020.2.5,MacIntel,60,,,left,0.0,8.15125,0.0,57.0,57.0,50.0,1.0,5000.0,0.0,15000.0,91.0
,,,,,,,,,,,,,,,,,,,,,,,2,392,2020-11-11_11h27.20.066,tareaTDv3,2020.2.5,MacIntel,60,,,right,0.0,3.589895,0.0,58.0,58.0,45.0,1.0,5000.0,0.0,15000.0,61.0
,,,,,,,,,,,,,,,,,,,,,,,2,392,2020-11-11_11h27.20.066,tareaTDv3,2020.2.5,MacIntel,60,,,right,1.0,2.911735,0.0,59.0,59.0,12.0,1.0,10000.0,0.0,60000.0,29.0
,,,,,,,,,,,,,,,,,,,,,,,2,392,2020-11-11_11h27.20.066,tareaTDv3,2020.2.5,MacIntel,60,,,right,0.0,7.045375,0.0,60.0,60.0,60.0,1.0,25000.0,0.0,35000.0,5.0
,,,,,,,,,,,,,,,,,,,,,,,2,392,2020-11-11_11h27.20.066,tareaTDv3,2020.2.5,MacIntel,60,,,left,0.0,3.78682,0.0,61.0,61.0,86.0,1.0,25000.0,0.0,55000.0,151.0
,,,,,,,,,,,,,,,,,,,,,,,2,392,2020-11-11_11h27.20.066,tareaTDv3,2020.2.5,MacIntel,60,,,right,1.0,7.31739,0.0,62.0,62.0,61.0,1.0,25000.0,0.0,55000.0,6.0
,,,,,,,,,,,,,,,,,,,,,,,2,392,2020-11-11_11h27.20.066,tareaTDv3,2020.2.5,MacIntel,60,,,right,0.0,8.31666,0.0,63.0,63.0,53.0,1.0,5000.0,0.0,104000.0,90.0
,,,,,,,,,,,,,,,,,,,,,,,2,392,2020-11-11_11h27.20.066,tareaTDv3,2020.2.5,MacIntel,60,,,left,0.0,2.71892,0.0,64.0,64.0,83.0,1.0,25000.0,0.0,125000.0,89.0
,,,,,,,,,,,,,,,,,,,,,,,2,392,2020-11-11_11h27.20.066,tareaTDv3,2020.2.5,MacIntel,60,,,left,0.0,2.851655,0.0,65.0,65.0,15.0,1.0,10000.0,0.0,20000.0,59.0
,,,,,,,,,,,,,,,,,,,,,,,2,392,2020-11-11_11h27.20.066,tareaTDv3,2020.2.5,MacIntel,60,,,left,1.0,6.584425,0.0,66.0,66.0,8.0,1.0,10000.0,0.0,111000.0,10.0
,,,,,,,,,,,,,,,,,,,,,,,2,392,2020-11-11_11h27.20.066,tareaTDv3,2020.2.5,MacIntel,60,,,right,0.0,2.494125,0.0,67.0,67.0,85.0,1.0,25000.0,0.0,35000.0,150.0
,,,,,,,,,,,,,,,,,,,,,,,2,392,2020-11-11_11h27.20.066,tareaTDv3,2020.2.5,MacIntel,60,,,right,0.0,6.68875,0.0,68.0,68.0,24.0,1.0,10000.0,0.0,149000.0,89.0
,,,,,,,,,,,,,,,,,,,,,,,2,392,2020-11-11_11h27.20.066,tareaTDv3,2020.2.5,MacIntel,60,,,right,1.0,4.841525,0.0,69.0,69.0,68.0,1.0,25000.0,0.0,125000.0,9.0
,,,,,,,,,,,,,,,,,,,,,,,2,392,2020-11-11_11h27.20.066,tareaTDv3,2020.2.5,MacIntel,60,,,left,1.0,1.23456,0.0,70.0,70.0,66.0,1.0,25000.0,0.0,55000.0,11.0
,,,,,,,,,,,,,,,,,,,,,,,2,392,2020-11-11_11h27.20.066,tareaTDv3,2020.2.5,MacIntel,60,,,right,0.0,4.62852,0.0,71.0,71.0,70.0,1.0,25000.0,0.0,35000.0,30.0
,,,,,,,,,,,,,,,,,,,,,,,2,392,2020-11-11_11h27.20.066,tareaTDv3,2020.2.5,MacIntel,60,,,left,1.0,1.84505,0.0,72.0,72.0,65.0,1.0,25000.0,0.0,35000.0,11.0
,,,,,,,,,,,,,,,,,,,,,,,2,392,2020-11-11_11h27.20.066,tareaTDv3,2020.2.5,MacIntel,60,,,left,1.0,1.7016,0.0,73.0,73.0,6.0,1.0,10000.0,0.0,40000.0,10.0
,,,,,,,,,,,,,,,,,,,,,,,2,392,2020-11-11_11h27.20.066,tareaTDv3,2020.2.5,MacIntel,60,,,right,0.0,1.299775,0.0,74.0,74.0,52.0,1.0,5000.0,0.0,56000.0,89.0
,,,,,,,,,,,,,,,,,,,,,,,2,392,2020-11-11_11h27.20.066,tareaTDv3,2020.2.5,MacIntel,60,,,left,1.0,2.153055,0.0,75.0,75.0,59.0,1.0,5000.0,0.0,151000.0,150.0
,,,,,,,,,,,,,,,,,,,,,,,2,392,2020-11-11_11h27.20.066,tareaTDv3,2020.2.5,MacIntel,60,,,left,1.0,2.44085,0.0,76.0,76.0,54.0,1.0,5000.0,0.0,150000.0,90.0
,,,,,,,,,,,,,,,,,,,,,,,2,392,2020-11-11_11h27.20.066,tareaTDv3,2020.2.5,MacIntel,60,,,left,1.0,1.47683,0.0,77.0,77.0,79.0,1.0,25000.0,0.0,150000.0,61.0
,,,,,,,,,,,,,,,,,,,,,,,2,392,2020-11-11_11h27.20.066,tareaTDv3,2020.2.5,MacIntel,60,,,right,1.0,4.16656,0.0,78.0,78.0,32.0,1.0,5000.0,0.0,54000.0,5.0
,,,,,,,,,,,,,,,,,,,,,,,2,392,2020-11-11_11h27.20.066,tareaTDv3,2020.2.5,MacIntel,60,,,left,0.0,2.31459,0.0,79.0,79.0,23.0,1.0,10000.0,0.0,110000.0,90.0
,,,,,,,,,,,,,,,,,,,,,,,2,392,2020-11-11_11h27.20.066,tareaTDv3,2020.2.5,MacIntel,60,,,right,1.0,4.458145,0.0,80.0,80.0,64.0,1.0,25000.0,0.0,150000.0,4.0
,,,,,,,,,,,,,,,,,,,,,,,2,392,2020-11-11_11h27.20.066,tareaTDv3,2020.2.5,MacIntel,60,,,right,1.0,2.3235,0.0,81.0,81.0,1.0,1.0,10000.0,0.0,39000.0,6.0
,,,,,,,,,,,,,,,,,,,,,,,2,392,2020-11-11_11h27.20.066,tareaTDv3,2020.2.5,MacIntel,60,,,left,1.0,2.784895,0.0,82.0,82.0,40.0,1.0,5000.0,0.0,14000.0,31.0
,,,,,,,,,,,,,,,,,,,,,,,2,392,2020-11-11_11h27.20.066,tareaTDv3,2020.2.5,MacIntel,60,,,left,0.0,2.07644,0.0,83.0,83.0,89.0,1.0,25000.0,0.0,150000.0,150.0
,,,,,,,,,,,,,,,,,,,,,,,2,392,2020-11-11_11h27.20.066,tareaTDv3,2020.2.5,MacIntel,60,,,left,0.0,5.62344,0.0,84.0,84.0,81.0,1.0,25000.0,0.0,55000.0,90.0
,,,,,,,,,,,,,,,,,,,,,,,2,392,2020-11-11_11h27.20.066,tareaTDv3,2020.2.5,MacIntel,60,,,right,1.0,2.279905,0.0,85.0,85.0,62.0,1.0,25000.0,0.0,75000.0,5.0
,,,,,,,,,,,,,,,,,,,,,,,2,392,2020-11-11_11h27.20.066,tareaTDv3,2020.2.5,MacIntel,60,,,right,1.0,1.65317,0.0,86.0,86.0,72.0,1.0,25000.0,0.0,75000.0,31.0
,,,,,,,,,,,,,,,,,,,,,,,2,392,2020-11-11_11h27.20.066,tareaTDv3,2020.2.5,MacIntel,60,,,left,0.0,2.43626,0.0,87.0,87.0,28.0,1.0,10000.0,0.0,109000.0,149.0
,,,,,,,,,,,,,,,,,,,,,,,2,392,2020-11-11_11h27.20.066,tareaTDv3,2020.2.5,MacIntel,60,,,left,0.0,2.675195,0.0,88.0,88.0,27.0,1.0,10000.0,0.0,61000.0,150.0
,,,,,,,,,,,,,,,,,,,,,,,2,392,2020-11-11_11h27.20.066,tareaTDv3,2020.2.5,MacIntel,60,,,left,0.0,7.02329,0.0,89.0,89.0,88.0,1.0,25000.0,0.0,125000.0,149.0
