key1.keys,key1.rt,key2.keys,key2.rt,key2_2.keys,key2_2.rt,key2_3.keys,key2_3.rt,key3.keys,key3.rt,key4.keys,key4.rt,respP.keys,respP.corr,respP.rt,Practice.thisRepN,Practice.thisTrialN,Practice.thisN,Practice.thisIndex,Practice.ran,ssAmount,llAmount,llDelay,session,participant,date,expName,psychopyVersion,OS,frameRate,key5.keys,key5.rt,respT.keys,respT.corr,respT.rt,trials.thisRepN,trials.thisTrialN,trials.thisN,trials.thisIndex,trials.ran,ss_am,ss_del,ll_am,ll_del,key_resp_4.keys,key_resp_4.rt
space,5.9638,space,5.0596,space,2.2886,space,1.2387,left,7.3732,space,4.2231,left,0.0,6.9892,0.0,0.0,0.0,0.0,1.0,10000.0,109000.0,9.0,1,419,2022-03-05_09h41.04.061,tareaTDv3,2020.2.5,Win32,60,,,,,,,,,,,,,,,,
,,,,,,,,,,,,right,0.0,4.9564,0.0,1.0,1.0,2.0,1.0,10000.0,19000.0,89.0,1,419,2022-03-05_09h41.04.061,tareaTDv3,2020.2.5,Win32,60,,,,,,,,,,,,,,,,
,,,,,,,,,,,,right,0.0,3.0727,0.0,2.0,2.0,1.0,1.0,25000.0,35000.0,150.0,1,419,2022-03-05_09h41.04.061,tareaTDv3,2020.2.5,Win32,60,,,,,,,,,,,,,,,,
,,,,,,,,,,,,,,,,,,,,,,,1,419,2022-03-05_09h41.04.061,tareaTDv3,2020.2.5,Win32,60,g,43.6229,left,0.0,5.3899,0.0,0.0,0.0,54.0,1.0,5000.0,0.0,150000.0,90.0,,
,,,,,,,,,,,,,,,,,,,,,,,1,419,2022-03-05_09h41.04.061,tareaTDv3,2020.2.5,Win32,60,,,right,1.0,1.3398,0.0,1.0,1.0,67.0,1.0,25000.0,0.0,75000.0,10.0,,
,,,,,,,,,,,,,,,,,,,,,,,1,419,2022-03-05_09h41.04.061,tareaTDv3,2020.2.5,Win32,60,,,right,1.0,6.41,0.0,2.0,2.0,32.0,1.0,5000.0,0.0,54000.0,5.0,,
,,,,,,,,,,,,,,,,,,,,,,,1,419,2022-03-05_09h41.04.061,tareaTDv3,2020.2.5,Win32,60,,,left,0.0,8.707,0.0,3.0,3.0,56.0,1.0,5000.0,0.0,35000.0,150.0,,
,,,,,,,,,,,,,,,,,,,,,,,1,419,2022-03-05_09h41.04.061,tareaTDv3,2020.2.5,Win32,60,,,left,1.0,7.2729,0.0,4.0,4.0,18.0,1.0,10000.0,0.0,110000.0,60.0,,
,,,,,,,,,,,,,,,,,,,,,,,1,419,2022-03-05_09h41.04.061,tareaTDv3,2020.2.5,Win32,60,,,right,0.0,2.2271,0.0,5.0,5.0,24.0,1.0,10000.0,0.0,149000.0,89.0,,
,,,,,,,,,,,,,,,,,,,,,,,1,419,2022-03-05_09h41.04.061,tareaTDv3,2020.2.5,Win32,60,,,right,1.0,7.4567,0.0,6.0,6.0,0.0,1.0,10000.0,0.0,20000.0,5.0,,
,,,,,,,,,,,,,,,,,,,,,,,1,419,2022-03-05_09h41.04.061,tareaTDv3,2020.2.5,Win32,60,,,left,1.0,2.1564,0.0,7.0,7.0,47.0,1.0,5000.0,0.0,56000.0,60.0,,
,,,,,,,,,,,,,,,,,,,,,,,1,419,2022-03-05_09h41.04.061,tareaTDv3,2020.2.5,Win32,60,,,left,0.0,1.1235,0.0,8.0,8.0,51.0,1.0,5000.0,0.0,35000.0,89.0,,
,,,,,,,,,,,,,,,,,,,,,,,1,419,2022-03-05_09h41.04.061,tareaTDv3,2020.2.5,Win32,60,,,left,1.0,11.9232,0.0,9.0,9.0,6.0,1.0,10000.0,0.0,40000.0,10.0,,
,,,,,,,,,,,,,,,,,,,,,,,1,419,2022-03-05_09h41.04.061,tareaTDv3,2020.2.5,Win32,60,,,right,1.0,1.6734,0.0,10.0,10.0,43.0,1.0,5000.0,0.0,106000.0,29.0,,
,,,,,,,,,,,,,,,,,,,,,,,1,419,2022-03-05_09h41.04.061,tareaTDv3,2020.2.5,Win32,60,,,right,0.0,10.4569,0.0,11.0,11.0,10.0,1.0,10000.0,0.0,21000.0,31.0,,
,,,,,,,,,,,,,,,,,,,,,,,1,419,2022-03-05_09h41.04.061,tareaTDv3,2020.2.5,Win32,60,,,left,1.0,0.8901,0.0,12.0,12.0,79.0,1.0,25000.0,0.0,150000.0,61.0,,
,,,,,,,,,,,,,,,,,,,,,,,1,419,2022-03-05_09h41.04.061,tareaTDv3,2020.2.5,Win32,60,,,left,1.0,3.9728,0.0,13.0,13.0,37.0,1.0,5000.0,0.0,56000.0,9.0,,
,,,,,,,,,,,,,,,,,,,,,,,1,419,2022-03-05_09h41.04.061,tareaTDv3,2020.2.5,Win32,60,,,left,0.0,3.923,0.0,14.0,14.0,21.0,1.0,10000.0,0.0,40000.0,91.0,,
,,,,,,,,,,,,,,,,,,,,,,,1,419,2022-03-05_09h41.04.061,tareaTDv3,2020.2.5,Win32,60,,,left,1.0,3.7566,0.0,15.0,15.0,74.0,1.0,25000.0,0.0,150000.0,29.0,,
,,,,,,,,,,,,,,,,,,,,,,,1,419,2022-03-05_09h41.04.061,tareaTDv3,2020.2.5,Win32,60,,,left,0.0,3.5732,0.0,16.0,16.0,15.0,1.0,10000.0,0.0,20000.0,59.0,,
,,,,,,,,,,,,,,,,,,,,,,,1,419,2022-03-05_09h41.04.061,tareaTDv3,2020.2.5,Win32,60,,,left,1.0,16.1221,0.0,17.0,17.0,31.0,1.0,5000.0,0.0,35000.0,6.0,,
,,,,,,,,,,,,,,,,,,,,,,,1,419,2022-03-05_09h41.04.061,tareaTDv3,2020.2.5,Win32,60,,,left,1.0,2.1061,0.0,18.0,18.0,73.0,1.0,25000.0,0.0,125000.0,31.0,,
,,,,,,,,,,,,,,,,,,,,,,,1,419,2022-03-05_09h41.04.061,tareaTDv3,2020.2.5,Win32,60,,,left,1.0,1.306,0.0,19.0,19.0,44.0,1.0,5000.0,0.0,150000.0,30.0,,
,,,,,,,,,,,,,,,,,,,,,,,1,419,2022-03-05_09h41.04.061,tareaTDv3,2020.2.5,Win32,60,,,right,1.0,0.5731,0.0,20.0,20.0,46.0,1.0,5000.0,0.0,36000.0,61.0,,
,,,,,,,,,,,,,,,,,,,,,,,1,419,2022-03-05_09h41.04.061,tareaTDv3,2020.2.5,Win32,60,,,left,1.0,2.2732,0.0,21.0,21.0,16.0,1.0,10000.0,0.0,39000.0,59.0,,
,,,,,,,,,,,,,,,,,,,,,,,1,419,2022-03-05_09h41.04.061,tareaTDv3,2020.2.5,Win32,60,,,right,0.0,11.4897,0.0,22.0,22.0,80.0,1.0,25000.0,0.0,35000.0,90.0,,
,,,,,,,,,,,,,,,,,,,,,,,1,419,2022-03-05_09h41.04.061,tareaTDv3,2020.2.5,Win32,60,,,left,1.0,5.1563,0.0,23.0,23.0,13.0,1.0,10000.0,0.0,111000.0,30.0,,
,,,,,,,,,,,,,,,,,,,,,,,1,419,2022-03-05_09h41.04.061,tareaTDv3,2020.2.5,Win32,60,,,left,1.0,5.3897,0.0,24.0,24.0,65.0,1.0,25000.0,0.0,35000.0,11.0,,
,,,,,,,,,,,,,,,,,,,,,,,1,419,2022-03-05_09h41.04.061,tareaTDv3,2020.2.5,Win32,60,,,right,1.0,1.3731,0.0,25.0,25.0,36.0,1.0,5000.0,0.0,36000.0,9.0,,
,,,,,,,,,,,,,,,,,,,,,,,1,419,2022-03-05_09h41.04.061,tareaTDv3,2020.2.5,Win32,60,,,left,1.0,1.2231,0.0,26.0,26.0,22.0,1.0,10000.0,0.0,61000.0,89.0,,
,,,,,,,,,,,,,,,,,,,,,,,1,419,2022-03-05_09h41.04.061,tareaTDv3,2020.2.5,Win32,60,,,right,1.0,0.4739,0.0,27.0,27.0,12.0,1.0,10000.0,0.0,60000.0,29.0,,
,,,,,,,,,,,,,,,,,,,,,,,1,419,2022-03-05_09h41.04.061,tareaTDv3,2020.2.5,Win32,60,,,right,0.0,2.9584,0.0,28.0,28.0,76.0,1.0,25000.0,0.0,55000.0,60.0,,
,,,,,,,,,,,,,,,,,,,,,,,1,419,2022-03-05_09h41.04.061,tareaTDv3,2020.2.5,Win32,60,,,right,1.0,0.7896,0.0,29.0,29.0,60.0,1.0,25000.0,0.0,35000.0,5.0,,
,,,,,,,,,,,,,,,,,,,,,,,1,419,2022-03-05_09h41.04.061,tareaTDv3,2020.2.5,Win32,60,,,left,1.0,1.1729,0.0,30.0,30.0,62.0,1.0,25000.0,0.0,75000.0,5.0,,
,,,,,,,,,,,,,,,,,,,,,,,1,419,2022-03-05_09h41.04.061,tareaTDv3,2020.2.5,Win32,60,,,right,1.0,1.3067,0.0,31.0,31.0,1.0,1.0,10000.0,0.0,39000.0,6.0,,
,,,,,,,,,,,,,,,,,,,,,,,1,419,2022-03-05_09h41.04.061,tareaTDv3,2020.2.5,Win32,60,,,left,0.0,3.2731,0.0,32.0,32.0,29.0,1.0,10000.0,0.0,151000.0,151.0,,
,,,,,,,,,,,,,,,,,,,,,,,1,419,2022-03-05_09h41.04.061,tareaTDv3,2020.2.5,Win32,60,,,right,1.0,1.5059,0.0,33.0,33.0,7.0,1.0,10000.0,0.0,59000.0,9.0,,
,,,,,,,,,,,,,,,,,,,,,,,1,419,2022-03-05_09h41.04.061,tareaTDv3,2020.2.5,Win32,60,,,right,1.0,6.8731,0.0,34.0,34.0,38.0,1.0,5000.0,0.0,104000.0,10.0,,
,,,,,,,,,,,,,,,,,,,,,,,1,419,2022-03-05_09h41.04.061,tareaTDv3,2020.2.5,Win32,60,,,right,1.0,1.1451,0.0,35.0,35.0,8.0,1.0,10000.0,0.0,111000.0,10.0,,
,,,,,,,,,,,,,,,,,,,,,,,1,419,2022-03-05_09h41.04.061,tareaTDv3,2020.2.5,Win32,60,,,right,0.0,1.8569,0.0,36.0,36.0,83.0,1.0,25000.0,0.0,125000.0,89.0,,
,,,,,,,,,,,,,,,,,,,,,,,1,419,2022-03-05_09h41.04.061,tareaTDv3,2020.2.5,Win32,60,,,right,1.0,1.5565,0.0,37.0,37.0,9.0,1.0,10000.0,0.0,151000.0,11.0,,
,,,,,,,,,,,,,,,,,,,,,,,1,419,2022-03-05_09h41.04.061,tareaTDv3,2020.2.5,Win32,60,,,left,1.0,3.49,0.0,38.0,38.0,64.0,1.0,25000.0,0.0,150000.0,4.0,,
,,,,,,,,,,,,,,,,,,,,,,,1,419,2022-03-05_09h41.04.061,tareaTDv3,2020.2.5,Win32,60,,,right,0.0,0.9054,0.0,39.0,39.0,28.0,1.0,10000.0,0.0,109000.0,149.0,,
,,,,,,,,,,,,,,,,,,,,,,,1,419,2022-03-05_09h41.04.061,tareaTDv3,2020.2.5,Win32,60,,,right,1.0,2.9731,0.0,40.0,40.0,5.0,1.0,10000.0,0.0,19000.0,11.0,,
,,,,,,,,,,,,,,,,,,,,,,,1,419,2022-03-05_09h41.04.061,tareaTDv3,2020.2.5,Win32,60,,,left,1.0,0.623,0.0,41.0,41.0,61.0,1.0,25000.0,0.0,55000.0,6.0,,
,,,,,,,,,,,,,,,,,,,,,,,1,419,2022-03-05_09h41.04.061,tareaTDv3,2020.2.5,Win32,60,,,right,1.0,0.7571,0.0,42.0,42.0,71.0,1.0,25000.0,0.0,55000.0,30.0,,
,,,,,,,,,,,,,,,,,,,,,,,1,419,2022-03-05_09h41.04.061,tareaTDv3,2020.2.5,Win32,60,,,right,1.0,0.6231,0.0,43.0,43.0,82.0,1.0,25000.0,0.0,75000.0,90.0,,
,,,,,,,,,,,,,,,,,,,,,,,1,419,2022-03-05_09h41.04.061,tareaTDv3,2020.2.5,Win32,60,,,right,1.0,1.6562,0.0,44.0,44.0,58.0,1.0,5000.0,0.0,106000.0,152.0,,
,,,,,,,,,,,,,,,,,,,,,,,1,419,2022-03-05_09h41.04.061,tareaTDv3,2020.2.5,Win32,60,,,right,0.0,1.8732,0.0,45.0,45.0,42.0,1.0,5000.0,0.0,56000.0,29.0,,
,,,,,,,,,,,,,,,,,,,,,,,1,419,2022-03-05_09h41.04.061,tareaTDv3,2020.2.5,Win32,60,,,right,1.0,1.6396,0.0,46.0,46.0,50.0,1.0,5000.0,0.0,15000.0,91.0,,
,,,,,,,,,,,,,,,,,,,,,,,1,419,2022-03-05_09h41.04.061,tareaTDv3,2020.2.5,Win32,60,,,left,0.0,1.5565,0.0,47.0,47.0,41.0,1.0,5000.0,0.0,35000.0,31.0,,
,,,,,,,,,,,,,,,,,,,,,,,1,419,2022-03-05_09h41.04.061,tareaTDv3,2020.2.5,Win32,60,,,left,1.0,1.7893,0.0,48.0,48.0,53.0,1.0,5000.0,0.0,104000.0,90.0,,
,,,,,,,,,,,,,,,,,,,,,,,1,419,2022-03-05_09h41.04.061,tareaTDv3,2020.2.5,Win32,60,,,right,1.0,1.0411,0.0,49.0,49.0,40.0,1.0,5000.0,0.0,14000.0,31.0,,
,,,,,,,,,,,,,,,,,,,,,,,1,419,2022-03-05_09h41.04.061,tareaTDv3,2020.2.5,Win32,60,,,right,1.0,0.2558,0.0,50.0,50.0,75.0,1.0,25000.0,0.0,35000.0,60.0,,
,,,,,,,,,,,,,,,,,,,,,,,1,419,2022-03-05_09h41.04.061,tareaTDv3,2020.2.5,Win32,60,,,left,1.0,0.5565,0.0,51.0,51.0,39.0,1.0,5000.0,0.0,149000.0,10.0,,
,,,,,,,,,,,,,,,,,,,,,,,1,419,2022-03-05_09h41.04.061,tareaTDv3,2020.2.5,Win32,60,,,left,1.0,0.4556,0.0,52.0,52.0,4.0,1.0,10000.0,0.0,150000.0,5.0,,
,,,,,,,,,,,,,,,,,,,,,,,1,419,2022-03-05_09h41.04.061,tareaTDv3,2020.2.5,Win32,60,,,right,1.0,2.606,0.0,53.0,53.0,26.0,1.0,10000.0,0.0,39000.0,150.0,,
,,,,,,,,,,,,,,,,,,,,,,,1,419,2022-03-05_09h41.04.061,tareaTDv3,2020.2.5,Win32,60,,,left,0.0,1.276,0.0,54.0,54.0,66.0,1.0,25000.0,0.0,55000.0,11.0,,
,,,,,,,,,,,,,,,,,,,,,,,1,419,2022-03-05_09h41.04.061,tareaTDv3,2020.2.5,Win32,60,,,right,1.0,0.4066,0.0,55.0,55.0,34.0,1.0,5000.0,0.0,151000.0,4.0,,
,,,,,,,,,,,,,,,,,,,,,,,1,419,2022-03-05_09h41.04.061,tareaTDv3,2020.2.5,Win32,60,,,left,1.0,2.7898,0.0,56.0,56.0,69.0,1.0,25000.0,0.0,150000.0,9.0,,
,,,,,,,,,,,,,,,,,,,,,,,1,419,2022-03-05_09h41.04.061,tareaTDv3,2020.2.5,Win32,60,,,left,0.0,0.9734,0.0,57.0,57.0,72.0,1.0,25000.0,0.0,75000.0,31.0,,
,,,,,,,,,,,,,,,,,,,,,,,1,419,2022-03-05_09h41.04.061,tareaTDv3,2020.2.5,Win32,60,,,right,0.0,1.0573,0.0,58.0,58.0,86.0,1.0,25000.0,0.0,55000.0,151.0,,
,,,,,,,,,,,,,,,,,,,,,,,1,419,2022-03-05_09h41.04.061,tareaTDv3,2020.2.5,Win32,60,,,right,0.0,3.3437,0.0,59.0,59.0,85.0,1.0,25000.0,0.0,35000.0,150.0,,
,,,,,,,,,,,,,,,,,,,,,,,1,419,2022-03-05_09h41.04.061,tareaTDv3,2020.2.5,Win32,60,,,left,0.0,1.7895,0.0,60.0,60.0,81.0,1.0,25000.0,0.0,55000.0,90.0,,
,,,,,,,,,,,,,,,,,,,,,,,1,419,2022-03-05_09h41.04.061,tareaTDv3,2020.2.5,Win32,60,,,right,0.0,1.1068,0.0,61.0,61.0,27.0,1.0,10000.0,0.0,61000.0,150.0,,
,,,,,,,,,,,,,,,,,,,,,,,1,419,2022-03-05_09h41.04.061,tareaTDv3,2020.2.5,Win32,60,,,left,0.0,1.7063,0.0,62.0,62.0,48.0,1.0,5000.0,0.0,105000.0,60.0,,
,,,,,,,,,,,,,,,,,,,,,,,1,419,2022-03-05_09h41.04.061,tareaTDv3,2020.2.5,Win32,60,,,right,0.0,1.1728,0.0,63.0,63.0,78.0,1.0,25000.0,0.0,125000.0,59.0,,
,,,,,,,,,,,,,,,,,,,,,,,1,419,2022-03-05_09h41.04.061,tareaTDv3,2020.2.5,Win32,60,,,right,1.0,2.5897,0.0,64.0,64.0,14.0,1.0,10000.0,0.0,150000.0,30.0,,
,,,,,,,,,,,,,,,,,,,,,,,1,419,2022-03-05_09h41.04.061,tareaTDv3,2020.2.5,Win32,60,,,right,1.0,3.3726,0.0,65.0,65.0,57.0,1.0,5000.0,0.0,55000.0,151.0,,
,,,,,,,,,,,,,,,,,,,,,,,1,419,2022-03-05_09h41.04.061,tareaTDv3,2020.2.5,Win32,60,,,right,1.0,1.4058,0.0,66.0,66.0,17.0,1.0,10000.0,0.0,60000.0,60.0,,
,,,,,,,,,,,,,,,,,,,,,,,1,419,2022-03-05_09h41.04.061,tareaTDv3,2020.2.5,Win32,60,,,left,0.0,1.2235,0.0,67.0,67.0,87.0,1.0,25000.0,0.0,75000.0,151.0,,
,,,,,,,,,,,,,,,,,,,,,,,1,419,2022-03-05_09h41.04.061,tareaTDv3,2020.2.5,Win32,60,,,right,0.0,0.7383,0.0,68.0,68.0,59.0,1.0,5000.0,0.0,151000.0,150.0,,
,,,,,,,,,,,,,,,,,,,,,,,1,419,2022-03-05_09h41.04.061,tareaTDv3,2020.2.5,Win32,60,,,left,1.0,7.157,0.0,69.0,69.0,45.0,1.0,5000.0,0.0,15000.0,61.0,,
,,,,,,,,,,,,,,,,,,,,,,,1,419,2022-03-05_09h41.04.061,tareaTDv3,2020.2.5,Win32,60,,,left,1.0,1.4226,0.0,70.0,70.0,3.0,1.0,10000.0,0.0,109000.0,5.0,,
,,,,,,,,,,,,,,,,,,,,,,,1,419,2022-03-05_09h41.04.061,tareaTDv3,2020.2.5,Win32,60,,,right,0.0,0.9567,0.0,71.0,71.0,70.0,1.0,25000.0,0.0,35000.0,30.0,,
,,,,,,,,,,,,,,,,,,,,,,,1,419,2022-03-05_09h41.04.061,tareaTDv3,2020.2.5,Win32,60,,,right,0.0,1.5906,0.0,72.0,72.0,20.0,1.0,10000.0,0.0,20000.0,90.0,,
,,,,,,,,,,,,,,,,,,,,,,,1,419,2022-03-05_09h41.04.061,tareaTDv3,2020.2.5,Win32,60,,,left,0.0,1.4581,0.0,73.0,73.0,23.0,1.0,10000.0,0.0,110000.0,90.0,,
,,,,,,,,,,,,,,,,,,,,,,,1,419,2022-03-05_09h41.04.061,tareaTDv3,2020.2.5,Win32,60,,,right,1.0,1.8107,0.0,74.0,74.0,52.0,1.0,5000.0,0.0,56000.0,89.0,,
,,,,,,,,,,,,,,,,,,,,,,,1,419,2022-03-05_09h41.04.061,tareaTDv3,2020.2.5,Win32,60,,,right,0.0,3.5225,0.0,75.0,75.0,89.0,1.0,25000.0,0.0,150000.0,150.0,,
,,,,,,,,,,,,,,,,,,,,,,,1,419,2022-03-05_09h41.04.061,tareaTDv3,2020.2.5,Win32,60,,,right,1.0,0.8067,0.0,76.0,76.0,2.0,1.0,10000.0,0.0,61000.0,4.0,,
,,,,,,,,,,,,,,,,,,,,,,,1,419,2022-03-05_09h41.04.061,tareaTDv3,2020.2.5,Win32,60,,,right,0.0,1.3231,0.0,77.0,77.0,11.0,1.0,10000.0,0.0,39000.0,29.0,,
,,,,,,,,,,,,,,,,,,,,,,,1,419,2022-03-05_09h41.04.061,tareaTDv3,2020.2.5,Win32,60,,,right,1.0,0.8566,0.0,78.0,78.0,35.0,1.0,5000.0,0.0,15000.0,11.0,,
,,,,,,,,,,,,,,,,,,,,,,,1,419,2022-03-05_09h41.04.061,tareaTDv3,2020.2.5,Win32,60,,,left,0.0,1.2406,0.0,79.0,79.0,25.0,1.0,10000.0,0.0,10000.0,150.0,,
,,,,,,,,,,,,,,,,,,,,,,,1,419,2022-03-05_09h41.04.061,tareaTDv3,2020.2.5,Win32,60,,,right,0.0,1.1893,0.0,80.0,80.0,19.0,1.0,10000.0,0.0,149000.0,61.0,,
,,,,,,,,,,,,,,,,,,,,,,,1,419,2022-03-05_09h41.04.061,tareaTDv3,2020.2.5,Win32,60,,,right,1.0,1.1788,0.0,81.0,81.0,77.0,1.0,25000.0,0.0,75000.0,59.0,,
,,,,,,,,,,,,,,,,,,,,,,,1,419,2022-03-05_09h41.04.061,tareaTDv3,2020.2.5,Win32,60,,,right,1.0,0.5103,0.0,82.0,82.0,63.0,1.0,25000.0,0.0,125000.0,4.0,,
,,,,,,,,,,,,,,,,,,,,,,,1,419,2022-03-05_09h41.04.061,tareaTDv3,2020.2.5,Win32,60,,,left,1.0,0.7058,0.0,83.0,83.0,30.0,1.0,5000.0,0.0,16000.0,4.0,,
,,,,,,,,,,,,,,,,,,,,,,,1,419,2022-03-05_09h41.04.061,tareaTDv3,2020.2.5,Win32,60,,,right,1.0,0.873,0.0,84.0,84.0,88.0,1.0,25000.0,0.0,125000.0,149.0,,
,,,,,,,,,,,,,,,,,,,,,,,1,419,2022-03-05_09h41.04.061,tareaTDv3,2020.2.5,Win32,60,,,left,0.0,1.6065,0.0,85.0,85.0,84.0,1.0,25000.0,0.0,150000.0,89.0,,
,,,,,,,,,,,,,,,,,,,,,,,1,419,2022-03-05_09h41.04.061,tareaTDv3,2020.2.5,Win32,60,,,left,1.0,0.857,0.0,86.0,86.0,33.0,1.0,5000.0,0.0,104000.0,5.0,,
,,,,,,,,,,,,,,,,,,,,,,,1,419,2022-03-05_09h41.04.061,tareaTDv3,2020.2.5,Win32,60,,,right,1.0,0.9402,0.0,87.0,87.0,55.0,1.0,5000.0,0.0,14000.0,149.0,,
,,,,,,,,,,,,,,,,,,,,,,,1,419,2022-03-05_09h41.04.061,tareaTDv3,2020.2.5,Win32,60,,,left,0.0,1.1736,0.0,88.0,88.0,68.0,1.0,25000.0,0.0,125000.0,9.0,,
,,,,,,,,,,,,,,,,,,,,,,,1,419,2022-03-05_09h41.04.061,tareaTDv3,2020.2.5,Win32,60,,,left,1.0,2.5775,0.0,89.0,89.0,49.0,1.0,5000.0,0.0,149000.0,59.0,,
,,,,,,,,,,,,,,,,,,,,,,,1,419,2022-03-05_09h41.04.061,tareaTDv3,2020.2.5,Win32,60,,,,,,,,,,,,,,,space,0.1037
