key1.keys,key1.rt,key2.keys,key2.rt,key2_2.keys,key2_2.rt,key2_3.keys,key2_3.rt,key3.keys,key3.rt,key4.keys,key4.rt,respP.keys,respP.corr,Practice.thisRepN,Practice.thisTrialN,Practice.thisN,Practice.thisIndex,Practice.ran,ssAmount,llAmount,llDelay,session,participant,date,expName,psychopyVersion,OS,frameRate,respP.rt,key5.keys,key5.rt,respT.keys,respT.corr,respT.rt,trials.thisRepN,trials.thisTrialN,trials.thisN,trials.thisIndex,trials.ran,ss_am,ss_del,ll_am,ll_del
space,4.5278,space,35.2077,space,17.6181,space,6.1413,right,8.4905,space,3.3726,,0,0,0,0,2,1,10000,19000,89,1,467,2022-09-07_08h35.08.977,tareaTDv3,2020.2.5,Win32,60,,,,,,,,,,,,,,,
,,,,,,,,,,,,right,0,0,1,1,1,1,25000,35000,150,1,467,2022-09-07_08h35.08.977,tareaTDv3,2020.2.5,Win32,60,2.4144,,,,,,,,,,,,,,
,,,,,,,,,,,,left,1,0,2,2,0,1,10000,109000,9,1,467,2022-09-07_08h35.08.977,tareaTDv3,2020.2.5,Win32,60,4.5529,,,,,,,,,,,,,,
,,,,,,,,,,,,,,,,,,,,,,1,467,2022-09-07_08h35.08.977,tareaTDv3,2020.2.5,Win32,60,,g,12.7121,left,0,3.1545,0,0,0,59,1,5000,0,151000,150
,,,,,,,,,,,,,,,,,,,,,,1,467,2022-09-07_08h35.08.977,tareaTDv3,2020.2.5,Win32,60,,,,left,0,2.8826,0,1,1,82,1,25000,0,75000,90
,,,,,,,,,,,,,,,,,,,,,,1,467,2022-09-07_08h35.08.977,tareaTDv3,2020.2.5,Win32,60,,,,left,0,2.9254,0,2,2,52,1,5000,0,56000,89
,,,,,,,,,,,,,,,,,,,,,,1,467,2022-09-07_08h35.08.977,tareaTDv3,2020.2.5,Win32,60,,,,left,1,3.1926,0,3,3,77,1,25000,0,75000,59
,,,,,,,,,,,,,,,,,,,,,,1,467,2022-09-07_08h35.08.977,tareaTDv3,2020.2.5,Win32,60,,,,left,0,3.6555,0,4,4,38,1,5000,0,104000,10
,,,,,,,,,,,,,,,,,,,,,,1,467,2022-09-07_08h35.08.977,tareaTDv3,2020.2.5,Win32,60,,,,right,0,3.2372,0,5,5,67,1,25000,0,75000,10
,,,,,,,,,,,,,,,,,,,,,,1,467,2022-09-07_08h35.08.977,tareaTDv3,2020.2.5,Win32,60,,,,right,0,0.7229,0,6,6,63,1,25000,0,125000,4
,,,,,,,,,,,,,,,,,,,,,,1,467,2022-09-07_08h35.08.977,tareaTDv3,2020.2.5,Win32,60,,,,right,0,2.5551,0,7,7,20,1,10000,0,20000,90
,,,,,,,,,,,,,,,,,,,,,,1,467,2022-09-07_08h35.08.977,tareaTDv3,2020.2.5,Win32,60,,,,right,1,7.0428,0,8,8,23,1,10000,0,110000,90
,,,,,,,,,,,,,,,,,,,,,,1,467,2022-09-07_08h35.08.977,tareaTDv3,2020.2.5,Win32,60,,,,left,0,3.7389,0,9,9,55,1,5000,0,14000,149
,,,,,,,,,,,,,,,,,,,,,,1,467,2022-09-07_08h35.08.977,tareaTDv3,2020.2.5,Win32,60,,,,left,0,4.4632,0,10,10,75,1,25000,0,35000,60
,,,,,,,,,,,,,,,,,,,,,,1,467,2022-09-07_08h35.08.977,tareaTDv3,2020.2.5,Win32,60,,,,right,0,5.4953,0,11,11,44,1,5000,0,150000,30
,,,,,,,,,,,,,,,,,,,,,,1,467,2022-09-07_08h35.08.977,tareaTDv3,2020.2.5,Win32,60,,,,right,1,1.1987,0,12,12,17,1,10000,0,60000,60
,,,,,,,,,,,,,,,,,,,,,,1,467,2022-09-07_08h35.08.977,tareaTDv3,2020.2.5,Win32,60,,,,right,1,1.1262,0,13,13,9,1,10000,0,151000,11
,,,,,,,,,,,,,,,,,,,,,,1,467,2022-09-07_08h35.08.977,tareaTDv3,2020.2.5,Win32,60,,,,right,0,2.9187,0,14,14,25,1,10000,0,10000,150
,,,,,,,,,,,,,,,,,,,,,,1,467,2022-09-07_08h35.08.977,tareaTDv3,2020.2.5,Win32,60,,,,right,1,2.3557,0,15,15,71,1,25000,0,55000,30
,,,,,,,,,,,,,,,,,,,,,,1,467,2022-09-07_08h35.08.977,tareaTDv3,2020.2.5,Win32,60,,,,left,1,10.5234,0,16,16,14,1,10000,0,150000,30
,,,,,,,,,,,,,,,,,,,,,,1,467,2022-09-07_08h35.08.977,tareaTDv3,2020.2.5,Win32,60,,,,left,1,9.4,0,17,17,30,1,5000,0,16000,4
,,,,,,,,,,,,,,,,,,,,,,1,467,2022-09-07_08h35.08.977,tareaTDv3,2020.2.5,Win32,60,,,,right,1,1.7387,0,18,18,42,1,5000,0,56000,29
,,,,,,,,,,,,,,,,,,,,,,1,467,2022-09-07_08h35.08.977,tareaTDv3,2020.2.5,Win32,60,,,,left,1,5.786,0,19,19,41,1,5000,0,35000,31
,,,,,,,,,,,,,,,,,,,,,,1,467,2022-09-07_08h35.08.977,tareaTDv3,2020.2.5,Win32,60,,,,left,1,3.6796,0,20,20,33,1,5000,0,104000,5
,,,,,,,,,,,,,,,,,,,,,,1,467,2022-09-07_08h35.08.977,tareaTDv3,2020.2.5,Win32,60,,,,left,1,1.0499,0,21,21,24,1,10000,0,149000,89
,,,,,,,,,,,,,,,,,,,,,,1,467,2022-09-07_08h35.08.977,tareaTDv3,2020.2.5,Win32,60,,,,left,1,1.665,0,22,22,61,1,25000,0,55000,6
,,,,,,,,,,,,,,,,,,,,,,1,467,2022-09-07_08h35.08.977,tareaTDv3,2020.2.5,Win32,60,,,,right,0,1.8518,0,23,23,83,1,25000,0,125000,89
,,,,,,,,,,,,,,,,,,,,,,1,467,2022-09-07_08h35.08.977,tareaTDv3,2020.2.5,Win32,60,,,,left,1,1.3988,0,24,24,18,1,10000,0,110000,60
,,,,,,,,,,,,,,,,,,,,,,1,467,2022-09-07_08h35.08.977,tareaTDv3,2020.2.5,Win32,60,,,,right,1,2.9178,0,25,25,3,1,10000,0,109000,5
,,,,,,,,,,,,,,,,,,,,,,1,467,2022-09-07_08h35.08.977,tareaTDv3,2020.2.5,Win32,60,,,,right,1,2.4863,0,26,26,27,1,10000,0,61000,150
,,,,,,,,,,,,,,,,,,,,,,1,467,2022-09-07_08h35.08.977,tareaTDv3,2020.2.5,Win32,60,,,,left,0,2.1446,0,27,27,84,1,25000,0,150000,89
,,,,,,,,,,,,,,,,,,,,,,1,467,2022-09-07_08h35.08.977,tareaTDv3,2020.2.5,Win32,60,,,,left,1,6.1979,0,28,28,47,1,5000,0,56000,60
,,,,,,,,,,,,,,,,,,,,,,1,467,2022-09-07_08h35.08.977,tareaTDv3,2020.2.5,Win32,60,,,,right,1,1.8323,0,29,29,28,1,10000,0,109000,149
,,,,,,,,,,,,,,,,,,,,,,1,467,2022-09-07_08h35.08.977,tareaTDv3,2020.2.5,Win32,60,,,,right,1,3.0093,0,30,30,1,1,10000,0,39000,6
,,,,,,,,,,,,,,,,,,,,,,1,467,2022-09-07_08h35.08.977,tareaTDv3,2020.2.5,Win32,60,,,,right,1,1.1655,0,31,31,72,1,25000,0,75000,31
,,,,,,,,,,,,,,,,,,,,,,1,467,2022-09-07_08h35.08.977,tareaTDv3,2020.2.5,Win32,60,,,,left,1,4.8781,0,32,32,60,1,25000,0,35000,5
,,,,,,,,,,,,,,,,,,,,,,1,467,2022-09-07_08h35.08.977,tareaTDv3,2020.2.5,Win32,60,,,,right,1,5.1182,0,33,33,53,1,5000,0,104000,90
,,,,,,,,,,,,,,,,,,,,,,1,467,2022-09-07_08h35.08.977,tareaTDv3,2020.2.5,Win32,60,,,,right,0,1.9364,0,34,34,5,1,10000,0,19000,11
,,,,,,,,,,,,,,,,,,,,,,1,467,2022-09-07_08h35.08.977,tareaTDv3,2020.2.5,Win32,60,,,,right,0,3.5437,0,35,35,88,1,25000,0,125000,149
,,,,,,,,,,,,,,,,,,,,,,1,467,2022-09-07_08h35.08.977,tareaTDv3,2020.2.5,Win32,60,,,,left,1,5.3783,0,36,36,26,1,10000,0,39000,150
,,,,,,,,,,,,,,,,,,,,,,1,467,2022-09-07_08h35.08.977,tareaTDv3,2020.2.5,Win32,60,,,,right,1,3.0017,0,37,37,49,1,5000,0,149000,59
,,,,,,,,,,,,,,,,,,,,,,1,467,2022-09-07_08h35.08.977,tareaTDv3,2020.2.5,Win32,60,,,,left,1,1.8294,0,38,38,31,1,5000,0,35000,6
,,,,,,,,,,,,,,,,,,,,,,1,467,2022-09-07_08h35.08.977,tareaTDv3,2020.2.5,Win32,60,,,,left,1,0.5421,0,39,39,46,1,5000,0,36000,61
,,,,,,,,,,,,,,,,,,,,,,1,467,2022-09-07_08h35.08.977,tareaTDv3,2020.2.5,Win32,60,,,,right,1,0.7331,0,40,40,29,1,10000,0,151000,151
,,,,,,,,,,,,,,,,,,,,,,1,467,2022-09-07_08h35.08.977,tareaTDv3,2020.2.5,Win32,60,,,,left,0,4.9296,0,41,41,79,1,25000,0,150000,61
,,,,,,,,,,,,,,,,,,,,,,1,467,2022-09-07_08h35.08.977,tareaTDv3,2020.2.5,Win32,60,,,,right,1,0.5501,0,42,42,11,1,10000,0,39000,29
,,,,,,,,,,,,,,,,,,,,,,1,467,2022-09-07_08h35.08.977,tareaTDv3,2020.2.5,Win32,60,,,,left,0,0.9477,0,43,43,36,1,5000,0,36000,9
,,,,,,,,,,,,,,,,,,,,,,1,467,2022-09-07_08h35.08.977,tareaTDv3,2020.2.5,Win32,60,,,,right,1,1.0311,0,44,44,58,1,5000,0,106000,152
,,,,,,,,,,,,,,,,,,,,,,1,467,2022-09-07_08h35.08.977,tareaTDv3,2020.2.5,Win32,60,,,,right,1,0.8331,0,45,45,74,1,25000,0,150000,29
,,,,,,,,,,,,,,,,,,,,,,1,467,2022-09-07_08h35.08.977,tareaTDv3,2020.2.5,Win32,60,,,,right,1,1.149,0,46,46,7,1,10000,0,59000,9
,,,,,,,,,,,,,,,,,,,,,,1,467,2022-09-07_08h35.08.977,tareaTDv3,2020.2.5,Win32,60,,,,right,0,0.8989,0,47,47,85,1,25000,0,35000,150
,,,,,,,,,,,,,,,,,,,,,,1,467,2022-09-07_08h35.08.977,tareaTDv3,2020.2.5,Win32,60,,,,right,0,2.5325,0,48,48,73,1,25000,0,125000,31
,,,,,,,,,,,,,,,,,,,,,,1,467,2022-09-07_08h35.08.977,tareaTDv3,2020.2.5,Win32,60,,,,right,0,1.8482,0,49,49,21,1,10000,0,40000,91
,,,,,,,,,,,,,,,,,,,,,,1,467,2022-09-07_08h35.08.977,tareaTDv3,2020.2.5,Win32,60,,,,left,1,1.0159,0,50,50,65,1,25000,0,35000,11
,,,,,,,,,,,,,,,,,,,,,,1,467,2022-09-07_08h35.08.977,tareaTDv3,2020.2.5,Win32,60,,,,right,0,2.3968,0,51,51,86,1,25000,0,55000,151
,,,,,,,,,,,,,,,,,,,,,,1,467,2022-09-07_08h35.08.977,tareaTDv3,2020.2.5,Win32,60,,,,right,1,3.0313,0,52,52,54,1,5000,0,150000,90
,,,,,,,,,,,,,,,,,,,,,,1,467,2022-09-07_08h35.08.977,tareaTDv3,2020.2.5,Win32,60,,,,left,1,2.1142,0,53,53,34,1,5000,0,151000,4
,,,,,,,,,,,,,,,,,,,,,,1,467,2022-09-07_08h35.08.977,tareaTDv3,2020.2.5,Win32,60,,,,left,0,2.4817,0,54,54,19,1,10000,0,149000,61
,,,,,,,,,,,,,,,,,,,,,,1,467,2022-09-07_08h35.08.977,tareaTDv3,2020.2.5,Win32,60,,,,left,1,9.0096,0,55,55,64,1,25000,0,150000,4
,,,,,,,,,,,,,,,,,,,,,,1,467,2022-09-07_08h35.08.977,tareaTDv3,2020.2.5,Win32,60,,,,left,1,5.6447,0,56,56,15,1,10000,0,20000,59
,,,,,,,,,,,,,,,,,,,,,,1,467,2022-09-07_08h35.08.977,tareaTDv3,2020.2.5,Win32,60,,,,left,1,1.0161,0,57,57,37,1,5000,0,56000,9
,,,,,,,,,,,,,,,,,,,,,,1,467,2022-09-07_08h35.08.977,tareaTDv3,2020.2.5,Win32,60,,,,right,1,0.9994,0,58,58,13,1,10000,0,111000,30
,,,,,,,,,,,,,,,,,,,,,,1,467,2022-09-07_08h35.08.977,tareaTDv3,2020.2.5,Win32,60,,,,left,1,1.1163,0,59,59,45,1,5000,0,15000,61
,,,,,,,,,,,,,,,,,,,,,,1,467,2022-09-07_08h35.08.977,tareaTDv3,2020.2.5,Win32,60,,,,right,1,1.4324,0,60,60,80,1,25000,0,35000,90
,,,,,,,,,,,,,,,,,,,,,,1,467,2022-09-07_08h35.08.977,tareaTDv3,2020.2.5,Win32,60,,,,right,1,2.8142,0,61,61,69,1,25000,0,150000,9
,,,,,,,,,,,,,,,,,,,,,,1,467,2022-09-07_08h35.08.977,tareaTDv3,2020.2.5,Win32,60,,,,right,1,1.6986,0,62,62,6,1,10000,0,40000,10
,,,,,,,,,,,,,,,,,,,,,,1,467,2022-09-07_08h35.08.977,tareaTDv3,2020.2.5,Win32,60,,,,left,0,7.1919,0,63,63,66,1,25000,0,55000,11
,,,,,,,,,,,,,,,,,,,,,,1,467,2022-09-07_08h35.08.977,tareaTDv3,2020.2.5,Win32,60,,,,right,1,0.3333,0,64,64,32,1,5000,0,54000,5
,,,,,,,,,,,,,,,,,,,,,,1,467,2022-09-07_08h35.08.977,tareaTDv3,2020.2.5,Win32,60,,,,right,0,2.7973,0,65,65,10,1,10000,0,21000,31
,,,,,,,,,,,,,,,,,,,,,,1,467,2022-09-07_08h35.08.977,tareaTDv3,2020.2.5,Win32,60,,,,left,1,1.2328,0,66,66,39,1,5000,0,149000,10
,,,,,,,,,,,,,,,,,,,,,,1,467,2022-09-07_08h35.08.977,tareaTDv3,2020.2.5,Win32,60,,,,left,0,1.5154,0,67,67,57,1,5000,0,55000,151
,,,,,,,,,,,,,,,,,,,,,,1,467,2022-09-07_08h35.08.977,tareaTDv3,2020.2.5,Win32,60,,,,left,1,0.9498,0,68,68,0,1,10000,0,20000,5
,,,,,,,,,,,,,,,,,,,,,,1,467,2022-09-07_08h35.08.977,tareaTDv3,2020.2.5,Win32,60,,,,right,0,8.0594,0,69,69,89,1,25000,0,150000,150
,,,,,,,,,,,,,,,,,,,,,,1,467,2022-09-07_08h35.08.977,tareaTDv3,2020.2.5,Win32,60,,,,right,0,1.9315,0,70,70,22,1,10000,0,61000,89
,,,,,,,,,,,,,,,,,,,,,,1,467,2022-09-07_08h35.08.977,tareaTDv3,2020.2.5,Win32,60,,,,right,0,1.815,0,71,71,35,1,5000,0,15000,11
,,,,,,,,,,,,,,,,,,,,,,1,467,2022-09-07_08h35.08.977,tareaTDv3,2020.2.5,Win32,60,,,,right,0,2.698,0,72,72,76,1,25000,0,55000,60
,,,,,,,,,,,,,,,,,,,,,,1,467,2022-09-07_08h35.08.977,tareaTDv3,2020.2.5,Win32,60,,,,left,0,3.3133,0,73,73,56,1,5000,0,35000,150
,,,,,,,,,,,,,,,,,,,,,,1,467,2022-09-07_08h35.08.977,tareaTDv3,2020.2.5,Win32,60,,,,right,0,1.3487,0,74,74,4,1,10000,0,150000,5
,,,,,,,,,,,,,,,,,,,,,,1,467,2022-09-07_08h35.08.977,tareaTDv3,2020.2.5,Win32,60,,,,right,1,0.5994,0,75,75,87,1,25000,0,75000,151
,,,,,,,,,,,,,,,,,,,,,,1,467,2022-09-07_08h35.08.977,tareaTDv3,2020.2.5,Win32,60,,,,left,0,1.515,0,76,76,50,1,5000,0,15000,91
,,,,,,,,,,,,,,,,,,,,,,1,467,2022-09-07_08h35.08.977,tareaTDv3,2020.2.5,Win32,60,,,,right,0,2.9468,0,77,77,51,1,5000,0,35000,89
,,,,,,,,,,,,,,,,,,,,,,1,467,2022-09-07_08h35.08.977,tareaTDv3,2020.2.5,Win32,60,,,,right,0,2.114,0,78,78,40,1,5000,0,14000,31
,,,,,,,,,,,,,,,,,,,,,,1,467,2022-09-07_08h35.08.977,tareaTDv3,2020.2.5,Win32,60,,,,left,0,6.4939,0,79,79,12,1,10000,0,60000,29
,,,,,,,,,,,,,,,,,,,,,,1,467,2022-09-07_08h35.08.977,tareaTDv3,2020.2.5,Win32,60,,,,right,0,1.6823,0,80,80,16,1,10000,0,39000,59
,,,,,,,,,,,,,,,,,,,,,,1,467,2022-09-07_08h35.08.977,tareaTDv3,2020.2.5,Win32,60,,,,left,0,2.3648,0,81,81,70,1,25000,0,35000,30
,,,,,,,,,,,,,,,,,,,,,,1,467,2022-09-07_08h35.08.977,tareaTDv3,2020.2.5,Win32,60,,,,right,1,5.2609,0,82,82,68,1,25000,0,125000,9
,,,,,,,,,,,,,,,,,,,,,,1,467,2022-09-07_08h35.08.977,tareaTDv3,2020.2.5,Win32,60,,,,left,1,0.8662,0,83,83,81,1,25000,0,55000,90
,,,,,,,,,,,,,,,,,,,,,,1,467,2022-09-07_08h35.08.977,tareaTDv3,2020.2.5,Win32,60,,,,right,1,1.5986,0,84,84,2,1,10000,0,61000,4
,,,,,,,,,,,,,,,,,,,,,,1,467,2022-09-07_08h35.08.977,tareaTDv3,2020.2.5,Win32,60,,,,left,0,4.3466,0,85,85,48,1,5000,0,105000,60
,,,,,,,,,,,,,,,,,,,,,,1,467,2022-09-07_08h35.08.977,tareaTDv3,2020.2.5,Win32,60,,,,left,1,2.4807,0,86,86,62,1,25000,0,75000,5
,,,,,,,,,,,,,,,,,,,,,,1,467,2022-09-07_08h35.08.977,tareaTDv3,2020.2.5,Win32,60,,,,right,1,2.1148,0,87,87,43,1,5000,0,106000,29
,,,,,,,,,,,,,,,,,,,,,,1,467,2022-09-07_08h35.08.977,tareaTDv3,2020.2.5,Win32,60,,,,right,1,3.7641,0,88,88,8,1,10000,0,111000,10
,,,,,,,,,,,,,,,,,,,,,,1,467,2022-09-07_08h35.08.977,tareaTDv3,2020.2.5,Win32,60,,,,right,0,2.7977,0,89,89,78,1,25000,0,125000,59