ssAmount,llAmount,llDelay,ss_am,ss_del,ll_am,ll_del,Practice.thisRepN,Practice.thisTrialN,Practice.thisN,Practice.thisIndex,trials.thisRepN,trials.thisTrialN,trials.thisN,trials.thisIndex,key1.keys,key1.rt,key2.keys,key2.rt,key2_2.keys,key2_2.rt,key2_3.keys,key2_3.rt,key3.keys,key3.rt,key4.keys,key4.rt,respP.keys,respP.corr,respP.rt,key5.keys,key5.rt,respT.keys,respT.corr,respT.rt,session,psychopyVersion,frameRate,expName,date,participant,Unnamed: 41
,,,,,,,,,,,,,,,space,9.24760000315,,,,,,,,,,,,,,,,,,,1,3.0.3,59.78851514989867,ninosDelConv2,2019_May_09_0826,47,
,,,,,,,,,,,,,,,,,space,33.3432318158,,,,,,,,,,,,,,,,,1,3.0.3,59.78851514989867,ninosDelConv2,2019_May_09_0826,47,
,,,,,,,,,,,,,,,,,,,space,29.2938557509,,,,,,,,,,,,,,,1,3.0.3,59.78851514989867,ninosDelConv2,2019_May_09_0826,47,
,,,,,,,,,,,,,,,,,,,,,space,8.13206858514,,,,,,,,,,,,,1,3.0.3,59.78851514989867,ninosDelConv2,2019_May_09_0826,47,
,,,,,,,,,,,,,,,,,,,,,,,right,6.18245014269,,,,,,,,,,,1,3.0.3,59.78851514989867,ninosDelConv2,2019_May_09_0826,47,
,,,,,,,,,,,,,,,,,,,,,,,,,space,1.71668598661,,,,,,,,,1,3.0.3,59.78851514989867,ninosDelConv2,2019_May_09_0826,47,
10.0,109.0,9.0,,,,,0.0,0.0,0.0,0.0,,,,,,,,,,,,,,,,,left,1.0,3.46654500673,,,,,,1,3.0.3,59.78851514989867,ninosDelConv2,2019_May_09_0826,47,
10.0,19.0,89.0,,,,,0.0,1.0,1.0,2.0,,,,,,,,,,,,,,,,,right,0.0,3.83381251898,,,,,,1,3.0.3,59.78851514989867,ninosDelConv2,2019_May_09_0826,47,
25.0,35.0,150.0,,,,,0.0,2.0,2.0,1.0,,,,,,,,,,,,,,,,,right,0.0,4.9660836421,,,,,,1,3.0.3,59.78851514989867,ninosDelConv2,2019_May_09_0826,47,
,,,,,,,,,,,,,,,,,,,,,,,,,,,,,,g,77.535393497,,,,1,3.0.3,59.78851514989867,ninosDelConv2,2019_May_09_0826,47,
,,,25.0,0.0,55.0,30.0,,,,,0.0,0.0,0.0,71.0,,,,,,,,,,,,,,,,,,right,0.0,6.06583612412,1,3.0.3,59.78851514989867,ninosDelConv2,2019_May_09_0826,47,
,,,5.0,0.0,35.0,6.0,,,,,0.0,1.0,1.0,31.0,,,,,,,,,,,,,,,,,,left,1.0,2.35064706765,1,3.0.3,59.78851514989867,ninosDelConv2,2019_May_09_0826,47,
,,,10.0,0.0,40.0,91.0,,,,,0.0,2.0,2.0,21.0,,,,,,,,,,,,,,,,,,right,1.0,5.96648254944,1,3.0.3,59.78851514989867,ninosDelConv2,2019_May_09_0826,47,
,,,25.0,0.0,125.0,31.0,,,,,0.0,3.0,3.0,73.0,,,,,,,,,,,,,,,,,,left,0.0,9.61539647821,1,3.0.3,59.78851514989867,ninosDelConv2,2019_May_09_0826,47,
,,,25.0,0.0,150.0,9.0,,,,,0.0,4.0,4.0,69.0,,,,,,,,,,,,,,,,,,right,1.0,2.63381868741,1,3.0.3,59.78851514989867,ninosDelConv2,2019_May_09_0826,47,
,,,25.0,0.0,75.0,10.0,,,,,0.0,5.0,5.0,67.0,,,,,,,,,,,,,,,,,,right,1.0,2.43388500018,1,3.0.3,59.78851514989867,ninosDelConv2,2019_May_09_0826,47,
,,,10.0,0.0,151.0,151.0,,,,,0.0,6.0,6.0,29.0,,,,,,,,,,,,,,,,,,right,1.0,6.39921298064,1,3.0.3,59.78851514989867,ninosDelConv2,2019_May_09_0826,47,
,,,5.0,0.0,36.0,9.0,,,,,0.0,7.0,7.0,36.0,,,,,,,,,,,,,,,,,,right,1.0,15.0646435153,1,3.0.3,59.78851514989867,ninosDelConv2,2019_May_09_0826,47,
,,,10.0,0.0,109.0,149.0,,,,,0.0,8.0,8.0,28.0,,,,,,,,,,,,,,,,,,right,1.0,2.71625829255,1,3.0.3,59.78851514989867,ninosDelConv2,2019_May_09_0826,47,
,,,10.0,0.0,61.0,4.0,,,,,0.0,9.0,9.0,2.0,,,,,,,,,,,,,,,,,,left,1.0,1.48378488841,1,3.0.3,59.78851514989867,ninosDelConv2,2019_May_09_0826,47,
,,,10.0,0.0,39.0,150.0,,,,,0.0,10.0,10.0,26.0,,,,,,,,,,,,,,,,,,left,0.0,1.68398845429,1,3.0.3,59.78851514989867,ninosDelConv2,2019_May_09_0826,47,
,,,10.0,0.0,61.0,89.0,,,,,0.0,11.0,11.0,22.0,,,,,,,,,,,,,,,,,,left,0.0,3.216774147,1,3.0.3,59.78851514989867,ninosDelConv2,2019_May_09_0826,47,
,,,25.0,0.0,35.0,5.0,,,,,0.0,12.0,12.0,60.0,,,,,,,,,,,,,,,,,,right,1.0,1.73369557085,1,3.0.3,59.78851514989867,ninosDelConv2,2019_May_09_0826,47,
,,,10.0,0.0,61.0,150.0,,,,,0.0,13.0,13.0,27.0,,,,,,,,,,,,,,,,,,right,0.0,9.78162148548,1,3.0.3,59.78851514989867,ninosDelConv2,2019_May_09_0826,47,
,,,5.0,0.0,106.0,152.0,,,,,0.0,14.0,14.0,58.0,,,,,,,,,,,,,,,,,,left,1.0,4.51599920867,1,3.0.3,59.78851514989867,ninosDelConv2,2019_May_09_0826,47,
,,,10.0,0.0,150.0,5.0,,,,,0.0,15.0,15.0,4.0,,,,,,,,,,,,,,,,,,right,1.0,1.6329766647,1,3.0.3,59.78851514989867,ninosDelConv2,2019_May_09_0826,47,
,,,5.0,0.0,55.0,151.0,,,,,0.0,16.0,16.0,57.0,,,,,,,,,,,,,,,,,,right,0.0,5.69995039375,1,3.0.3,59.78851514989867,ninosDelConv2,2019_May_09_0826,47,
,,,5.0,0.0,106.0,29.0,,,,,0.0,17.0,17.0,43.0,,,,,,,,,,,,,,,,,,right,1.0,2.36620650161,1,3.0.3,59.78851514989867,ninosDelConv2,2019_May_09_0826,47,
,,,10.0,0.0,110.0,60.0,,,,,0.0,18.0,18.0,18.0,,,,,,,,,,,,,,,,,,left,1.0,7.09868787322,1,3.0.3,59.78851514989867,ninosDelConv2,2019_May_09_0826,47,
,,,10.0,0.0,39.0,59.0,,,,,0.0,19.0,19.0,16.0,,,,,,,,,,,,,,,,,,left,0.0,3.16667840397,1,3.0.3,59.78851514989867,ninosDelConv2,2019_May_09_0826,47,
,,,5.0,0.0,14.0,31.0,,,,,0.0,20.0,20.0,40.0,,,,,,,,,,,,,,,,,,right,0.0,3.88301123446,1,3.0.3,59.78851514989867,ninosDelConv2,2019_May_09_0826,47,
,,,10.0,0.0,59.0,9.0,,,,,0.0,21.0,21.0,7.0,,,,,,,,,,,,,,,,,,right,1.0,1.53376959497,1,3.0.3,59.78851514989867,ninosDelConv2,2019_May_09_0826,47,
,,,5.0,0.0,15.0,61.0,,,,,0.0,22.0,22.0,45.0,,,,,,,,,,,,,,,,,,left,0.0,3.30010255426,1,3.0.3,59.78851514989867,ninosDelConv2,2019_May_09_0826,47,
,,,5.0,0.0,36.0,61.0,,,,,0.0,23.0,23.0,46.0,,,,,,,,,,,,,,,,,,left,0.0,1.65044067381,1,3.0.3,59.78851514989867,ninosDelConv2,2019_May_09_0826,47,
,,,10.0,0.0,149.0,61.0,,,,,0.0,24.0,24.0,19.0,,,,,,,,,,,,,,,,,,right,1.0,1.73395105684,1,3.0.3,59.78851514989867,ninosDelConv2,2019_May_09_0826,47,
,,,25.0,0.0,125.0,9.0,,,,,0.0,25.0,25.0,68.0,,,,,,,,,,,,,,,,,,right,1.0,1.24987212894,1,3.0.3,59.78851514989867,ninosDelConv2,2019_May_09_0826,47,
,,,10.0,0.0,60.0,60.0,,,,,0.0,26.0,26.0,17.0,,,,,,,,,,,,,,,,,,left,0.0,3.6161408308,1,3.0.3,59.78851514989867,ninosDelConv2,2019_May_09_0826,47,
,,,10.0,0.0,109.0,5.0,,,,,0.0,27.0,27.0,3.0,,,,,,,,,,,,,,,,,,left,1.0,0.916900347918,1,3.0.3,59.78851514989867,ninosDelConv2,2019_May_09_0826,47,
,,,25.0,0.0,75.0,151.0,,,,,0.0,28.0,28.0,87.0,,,,,,,,,,,,,,,,,,right,0.0,2.96706703026,1,3.0.3,59.78851514989867,ninosDelConv2,2019_May_09_0826,47,
,,,5.0,0.0,56.0,89.0,,,,,0.0,29.0,29.0,52.0,,,,,,,,,,,,,,,,,,right,1.0,5.64965519728,1,3.0.3,59.78851514989867,ninosDelConv2,2019_May_09_0826,47,
,,,5.0,0.0,105.0,60.0,,,,,0.0,30.0,30.0,48.0,,,,,,,,,,,,,,,,,,left,1.0,2.91694507049,1,3.0.3,59.78851514989867,ninosDelConv2,2019_May_09_0826,47,
,,,5.0,0.0,35.0,31.0,,,,,0.0,31.0,31.0,41.0,,,,,,,,,,,,,,,,,,left,1.0,2.28341682442,1,3.0.3,59.78851514989867,ninosDelConv2,2019_May_09_0826,47,
,,,25.0,0.0,35.0,30.0,,,,,0.0,32.0,32.0,70.0,,,,,,,,,,,,,,,,,,left,0.0,1.69987791218,1,3.0.3,59.78851514989867,ninosDelConv2,2019_May_09_0826,47,
,,,25.0,0.0,35.0,150.0,,,,,0.0,33.0,33.0,85.0,,,,,,,,,,,,,,,,,,right,0.0,2.76677453285,1,3.0.3,59.78851514989867,ninosDelConv2,2019_May_09_0826,47,
,,,25.0,0.0,75.0,90.0,,,,,0.0,34.0,34.0,82.0,,,,,,,,,,,,,,,,,,right,0.0,1.79980722954,1,3.0.3,59.78851514989867,ninosDelConv2,2019_May_09_0826,47,
,,,25.0,0.0,125.0,149.0,,,,,0.0,35.0,35.0,88.0,,,,,,,,,,,,,,,,,,left,0.0,3.68281383719,1,3.0.3,59.78851514989867,ninosDelConv2,2019_May_09_0826,47,
,,,25.0,0.0,35.0,90.0,,,,,0.0,36.0,36.0,80.0,,,,,,,,,,,,,,,,,,left,0.0,4.2493950855,1,3.0.3,59.78851514989867,ninosDelConv2,2019_May_09_0826,47,
,,,5.0,0.0,35.0,89.0,,,,,0.0,37.0,37.0,51.0,,,,,,,,,,,,,,,,,,left,1.0,7.09785767319,1,3.0.3,59.78851514989867,ninosDelConv2,2019_May_09_0826,47,
,,,10.0,0.0,150.0,30.0,,,,,0.0,38.0,38.0,14.0,,,,,,,,,,,,,,,,,,right,1.0,1.65099174157,1,3.0.3,59.78851514989867,ninosDelConv2,2019_May_09_0826,47,
,,,10.0,0.0,149.0,89.0,,,,,0.0,39.0,39.0,24.0,,,,,,,,,,,,,,,,,,right,1.0,4.03265486564,1,3.0.3,59.78851514989867,ninosDelConv2,2019_May_09_0826,47,
,,,25.0,0.0,150.0,150.0,,,,,0.0,40.0,40.0,89.0,,,,,,,,,,,,,,,,,,left,0.0,1.44998316467,1,3.0.3,59.78851514989867,ninosDelConv2,2019_May_09_0826,47,
,,,25.0,0.0,55.0,90.0,,,,,0.0,41.0,41.0,81.0,,,,,,,,,,,,,,,,,,left,0.0,6.43194495514,1,3.0.3,59.78851514989867,ninosDelConv2,2019_May_09_0826,47,
,,,25.0,0.0,55.0,60.0,,,,,0.0,42.0,42.0,76.0,,,,,,,,,,,,,,,,,,left,0.0,2.38366074394,1,3.0.3,59.78851514989867,ninosDelConv2,2019_May_09_0826,47,
,,,10.0,0.0,20.0,90.0,,,,,0.0,43.0,43.0,20.0,,,,,,,,,,,,,,,,,,left,0.0,1.3491784106,1,3.0.3,59.78851514989867,ninosDelConv2,2019_May_09_0826,47,
,,,10.0,0.0,39.0,29.0,,,,,0.0,44.0,44.0,11.0,,,,,,,,,,,,,,,,,,left,0.0,6.19836016279,1,3.0.3,59.78851514989867,ninosDelConv2,2019_May_09_0826,47,
,,,25.0,0.0,125.0,89.0,,,,,0.0,45.0,45.0,83.0,,,,,,,,,,,,,,,,,,left,1.0,4.96577161038,1,3.0.3,59.78851514989867,ninosDelConv2,2019_May_09_0826,47,
,,,5.0,0.0,151.0,150.0,,,,,0.0,46.0,46.0,59.0,,,,,,,,,,,,,,,,,,right,1.0,4.66699737543,1,3.0.3,59.78851514989867,ninosDelConv2,2019_May_09_0826,47,
,,,25.0,0.0,75.0,59.0,,,,,0.0,47.0,47.0,77.0,,,,,,,,,,,,,,,,,,left,1.0,3.50050197542,1,3.0.3,59.78851514989867,ninosDelConv2,2019_May_09_0826,47,
,,,25.0,0.0,55.0,6.0,,,,,0.0,48.0,48.0,61.0,,,,,,,,,,,,,,,,,,right,1.0,4.94940767949,1,3.0.3,59.78851514989867,ninosDelConv2,2019_May_09_0826,47,
,,,25.0,0.0,55.0,151.0,,,,,0.0,49.0,49.0,86.0,,,,,,,,,,,,,,,,,,right,0.0,9.09867090918,1,3.0.3,59.78851514989867,ninosDelConv2,2019_May_09_0826,47,
,,,10.0,0.0,20.0,5.0,,,,,0.0,50.0,50.0,0.0,,,,,,,,,,,,,,,,,,left,1.0,2.04996774299,1,3.0.3,59.78851514989867,ninosDelConv2,2019_May_09_0826,47,
,,,10.0,0.0,19.0,11.0,,,,,0.0,51.0,51.0,5.0,,,,,,,,,,,,,,,,,,right,1.0,2.78305672854,1,3.0.3,59.78851514989867,ninosDelConv2,2019_May_09_0826,47,
,,,5.0,0.0,151.0,4.0,,,,,0.0,52.0,52.0,34.0,,,,,,,,,,,,,,,,,,left,1.0,1.09993342962,1,3.0.3,59.78851514989867,ninosDelConv2,2019_May_09_0826,47,
,,,25.0,0.0,150.0,89.0,,,,,0.0,53.0,53.0,84.0,,,,,,,,,,,,,,,,,,right,0.0,4.23283684114,1,3.0.3,59.78851514989867,ninosDelConv2,2019_May_09_0826,47,
,,,25.0,0.0,75.0,5.0,,,,,0.0,54.0,54.0,62.0,,,,,,,,,,,,,,,,,,right,1.0,2.23231507512,1,3.0.3,59.78851514989867,ninosDelConv2,2019_May_09_0826,47,
,,,25.0,0.0,150.0,61.0,,,,,0.0,55.0,55.0,79.0,,,,,,,,,,,,,,,,,,left,1.0,1.78359957132,1,3.0.3,59.78851514989867,ninosDelConv2,2019_May_09_0826,47,
,,,5.0,0.0,56.0,29.0,,,,,0.0,56.0,56.0,42.0,,,,,,,,,,,,,,,,,,right,1.0,1.78336053528,1,3.0.3,59.78851514989867,ninosDelConv2,2019_May_09_0826,47,
,,,25.0,0.0,150.0,4.0,,,,,0.0,57.0,57.0,64.0,,,,,,,,,,,,,,,,,,left,1.0,0.850321927108,1,3.0.3,59.78851514989867,ninosDelConv2,2019_May_09_0826,47,
,,,5.0,0.0,14.0,149.0,,,,,0.0,58.0,58.0,55.0,,,,,,,,,,,,,,,,,,right,0.0,2.01752158394,1,3.0.3,59.78851514989867,ninosDelConv2,2019_May_09_0826,47,
,,,5.0,0.0,15.0,11.0,,,,,0.0,59.0,59.0,35.0,,,,,,,,,,,,,,,,,,right,1.0,1.81656955322,1,3.0.3,59.78851514989867,ninosDelConv2,2019_May_09_0826,47,
,,,10.0,0.0,111.0,30.0,,,,,0.0,60.0,60.0,13.0,,,,,,,,,,,,,,,,,,left,1.0,2.28330116207,1,3.0.3,59.78851514989867,ninosDelConv2,2019_May_09_0826,47,
,,,5.0,0.0,150.0,30.0,,,,,0.0,61.0,61.0,44.0,,,,,,,,,,,,,,,,,,right,1.0,3.06634915154,1,3.0.3,59.78851514989867,ninosDelConv2,2019_May_09_0826,47,
,,,25.0,0.0,75.0,31.0,,,,,0.0,62.0,62.0,72.0,,,,,,,,,,,,,,,,,,right,0.0,9.78140866617,1,3.0.3,59.78851514989867,ninosDelConv2,2019_May_09_0826,47,
,,,10.0,0.0,110.0,90.0,,,,,0.0,63.0,63.0,23.0,,,,,,,,,,,,,,,,,,left,1.0,1.2002164172,1,3.0.3,59.78851514989867,ninosDelConv2,2019_May_09_0826,47,
,,,10.0,0.0,39.0,6.0,,,,,0.0,64.0,64.0,1.0,,,,,,,,,,,,,,,,,,right,1.0,2.21674073348,1,3.0.3,59.78851514989867,ninosDelConv2,2019_May_09_0826,47,
,,,5.0,0.0,104.0,5.0,,,,,0.0,65.0,65.0,33.0,,,,,,,,,,,,,,,,,,left,1.0,1.11698979372,1,3.0.3,59.78851514989867,ninosDelConv2,2019_May_09_0826,47,
,,,25.0,0.0,55.0,11.0,,,,,0.0,66.0,66.0,66.0,,,,,,,,,,,,,,,,,,right,1.0,1.51678262884,1,3.0.3,59.78851514989867,ninosDelConv2,2019_May_09_0826,47,
,,,5.0,0.0,15.0,91.0,,,,,0.0,67.0,67.0,50.0,,,,,,,,,,,,,,,,,,left,0.0,2.56663111132,1,3.0.3,59.78851514989867,ninosDelConv2,2019_May_09_0826,47,
,,,25.0,0.0,125.0,59.0,,,,,0.0,68.0,68.0,78.0,,,,,,,,,,,,,,,,,,left,0.0,4.5653135865,1,3.0.3,59.78851514989867,ninosDelConv2,2019_May_09_0826,47,
,,,5.0,0.0,56.0,60.0,,,,,0.0,69.0,69.0,47.0,,,,,,,,,,,,,,,,,,left,0.0,1.60029198369,1,3.0.3,59.78851514989867,ninosDelConv2,2019_May_09_0826,47,
,,,5.0,0.0,104.0,90.0,,,,,0.0,70.0,70.0,53.0,,,,,,,,,,,,,,,,,,right,1.0,2.20080603892,1,3.0.3,59.78851514989867,ninosDelConv2,2019_May_09_0826,47,
,,,25.0,0.0,150.0,29.0,,,,,0.0,71.0,71.0,74.0,,,,,,,,,,,,,,,,,,right,1.0,2.33347606938,1,3.0.3,59.78851514989867,ninosDelConv2,2019_May_09_0826,47,
,,,5.0,0.0,54.0,5.0,,,,,0.0,72.0,72.0,32.0,,,,,,,,,,,,,,,,,,left,1.0,1.3000377831,1,3.0.3,59.78851514989867,ninosDelConv2,2019_May_09_0826,47,
,,,25.0,0.0,35.0,11.0,,,,,0.0,73.0,73.0,65.0,,,,,,,,,,,,,,,,,,right,0.0,3.049576547,1,3.0.3,59.78851514989867,ninosDelConv2,2019_May_09_0826,47,
,,,10.0,0.0,60.0,29.0,,,,,0.0,74.0,74.0,12.0,,,,,,,,,,,,,,,,,,right,1.0,2.49978641002,1,3.0.3,59.78851514989867,ninosDelConv2,2019_May_09_0826,47,
,,,5.0,0.0,149.0,59.0,,,,,0.0,75.0,75.0,49.0,,,,,,,,,,,,,,,,,,right,0.0,2.66636765748,1,3.0.3,59.78851514989867,ninosDelConv2,2019_May_09_0826,47,
,,,25.0,0.0,125.0,4.0,,,,,0.0,76.0,76.0,63.0,,,,,,,,,,,,,,,,,,right,1.0,1.11688543996,1,3.0.3,59.78851514989867,ninosDelConv2,2019_May_09_0826,47,
,,,5.0,0.0,56.0,9.0,,,,,0.0,77.0,77.0,37.0,,,,,,,,,,,,,,,,,,right,1.0,0.933458591346,1,3.0.3,59.78851514989867,ninosDelConv2,2019_May_09_0826,47,
,,,10.0,0.0,10.01,150.0,,,,,0.0,78.0,78.0,25.0,,,,,,,,,,,,,,,,,,right,0.0,2.68326929025,1,3.0.3,59.78851514989867,ninosDelConv2,2019_May_09_0826,47,
,,,5.0,0.0,16.0,4.0,,,,,0.0,79.0,79.0,30.0,,,,,,,,,,,,,,,,,,left,1.0,1.76674266113,1,3.0.3,59.78851514989867,ninosDelConv2,2019_May_09_0826,47,
,,,10.0,0.0,40.0,10.0,,,,,0.0,80.0,80.0,6.0,,,,,,,,,,,,,,,,,,left,1.0,2.91623670189,1,3.0.3,59.78851514989867,ninosDelConv2,2019_May_09_0826,47,
,,,10.0,0.0,111.0,10.0,,,,,0.0,81.0,81.0,8.0,,,,,,,,,,,,,,,,,,right,1.0,1.80046367785,1,3.0.3,59.78851514989867,ninosDelConv2,2019_May_09_0826,47,
,,,5.0,0.0,149.0,10.0,,,,,0.0,82.0,82.0,39.0,,,,,,,,,,,,,,,,,,right,1.0,1.28336233459,1,3.0.3,59.78851514989867,ninosDelConv2,2019_May_09_0826,47,
,,,5.0,0.0,35.0,150.0,,,,,0.0,83.0,83.0,56.0,,,,,,,,,,,,,,,,,,right,0.0,1.55025689956,1,3.0.3,59.78851514989867,ninosDelConv2,2019_May_09_0826,47,
,,,25.0,0.0,35.0,60.0,,,,,0.0,84.0,84.0,75.0,,,,,,,,,,,,,,,,,,right,0.0,5.36637048516,1,3.0.3,59.78851514989867,ninosDelConv2,2019_May_09_0826,47,
,,,10.0,0.0,20.0,59.0,,,,,0.0,85.0,85.0,15.0,,,,,,,,,,,,,,,,,,left,0.0,1.7835661578,1,3.0.3,59.78851514989867,ninosDelConv2,2019_May_09_0826,47,
,,,10.0,0.0,151.0,11.0,,,,,0.0,86.0,86.0,9.0,,,,,,,,,,,,,,,,,,left,1.0,1.43333547516,1,3.0.3,59.78851514989867,ninosDelConv2,2019_May_09_0826,47,
,,,5.0,0.0,150.0,90.0,,,,,0.0,87.0,87.0,54.0,,,,,,,,,,,,,,,,,,left,1.0,6.88233268121,1,3.0.3,59.78851514989867,ninosDelConv2,2019_May_09_0826,47,
,,,5.0,0.0,104.0,10.0,,,,,0.0,88.0,88.0,38.0,,,,,,,,,,,,,,,,,,right,1.0,6.33355574775,1,3.0.3,59.78851514989867,ninosDelConv2,2019_May_09_0826,47,
,,,10.0,0.0,21.0,31.0,,,,,0.0,89.0,89.0,10.0,,,,,,,,,,,,,,,,,,right,0.0,1.1169512393,1,3.0.3,59.78851514989867,ninosDelConv2,2019_May_09_0826,47,
