key1.keys,key1.rt,key2.keys,key2.rt,key2_2.keys,key2_2.rt,key2_3.keys,key2_3.rt,key3.keys,key3.rt,key4.keys,key4.rt,respP.keys,respP.corr,respP.rt,Practice.thisRepN,Practice.thisTrialN,Practice.thisN,Practice.thisIndex,Practice.ran,ssAmount,llAmount,llDelay,session,participant,date,expName,psychopyVersion,OS,frameRate,key5.keys,key5.rt,respT.keys,respT.corr,respT.rt,trials.thisRepN,trials.thisTrialN,trials.thisN,trials.thisIndex,trials.ran,ss_am,ss_del,ll_am,ll_del
space,7.4074,space,35.5347,space,23.8284,space,12.8302,left,7.899,space,1.7191,right,0,4.1375,0,0,0,2,1,10000,19000,89,1,61,2022-05-10_09h37.50.249,tareaTDv3,2020.2.5,Win32,60,,,,,,,,,,,,,,
,,,,,,,,,,,,right,1,5.6512,0,1,1,0,1,10000,109000,9,1,61,2022-05-10_09h37.50.249,tareaTDv3,2020.2.5,Win32,60,,,,,,,,,,,,,,
,,,,,,,,,,,,left,0,2.8362,0,2,2,1,1,25000,35000,150,1,61,2022-05-10_09h37.50.249,tareaTDv3,2020.2.5,Win32,60,,,,,,,,,,,,,,
,,,,,,,,,,,,,,,,,,,,,,,1,61,2022-05-10_09h37.50.249,tareaTDv3,2020.2.5,Win32,60,g,4.3433,left,0,3.1215,0,0,0,48,1,5000,0,105000,60
,,,,,,,,,,,,,,,,,,,,,,,1,61,2022-05-10_09h37.50.249,tareaTDv3,2020.2.5,Win32,60,,,right,1,1.7444,0,1,1,8,1,10000,0,111000,10
,,,,,,,,,,,,,,,,,,,,,,,1,61,2022-05-10_09h37.50.249,tareaTDv3,2020.2.5,Win32,60,,,left,0,2.0971,0,2,2,80,1,25000,0,35000,90
,,,,,,,,,,,,,,,,,,,,,,,1,61,2022-05-10_09h37.50.249,tareaTDv3,2020.2.5,Win32,60,,,left,1,2.1716,0,3,3,3,1,10000,0,109000,5
,,,,,,,,,,,,,,,,,,,,,,,1,61,2022-05-10_09h37.50.249,tareaTDv3,2020.2.5,Win32,60,,,right,1,1.6545,0,4,4,38,1,5000,0,104000,10
,,,,,,,,,,,,,,,,,,,,,,,1,61,2022-05-10_09h37.50.249,tareaTDv3,2020.2.5,Win32,60,,,left,1,3.1274,0,5,5,18,1,10000,0,110000,60
,,,,,,,,,,,,,,,,,,,,,,,1,61,2022-05-10_09h37.50.249,tareaTDv3,2020.2.5,Win32,60,,,left,0,3.0567,0,6,6,84,1,25000,0,150000,89
,,,,,,,,,,,,,,,,,,,,,,,1,61,2022-05-10_09h37.50.249,tareaTDv3,2020.2.5,Win32,60,,,right,1,2.3826,0,7,7,62,1,25000,0,75000,5
,,,,,,,,,,,,,,,,,,,,,,,1,61,2022-05-10_09h37.50.249,tareaTDv3,2020.2.5,Win32,60,,,left,1,2.4428,0,8,8,30,1,5000,0,16000,4
,,,,,,,,,,,,,,,,,,,,,,,1,61,2022-05-10_09h37.50.249,tareaTDv3,2020.2.5,Win32,60,,,right,1,4.0359,0,9,9,63,1,25000,0,125000,4
,,,,,,,,,,,,,,,,,,,,,,,1,61,2022-05-10_09h37.50.249,tareaTDv3,2020.2.5,Win32,60,,,right,0,3.1199,0,10,10,58,1,5000,0,106000,152
,,,,,,,,,,,,,,,,,,,,,,,1,61,2022-05-10_09h37.50.249,tareaTDv3,2020.2.5,Win32,60,,,right,0,2.2025,0,11,11,5,1,10000,0,19000,11
,,,,,,,,,,,,,,,,,,,,,,,1,61,2022-05-10_09h37.50.249,tareaTDv3,2020.2.5,Win32,60,,,left,0,2.5275,0,12,12,27,1,10000,0,61000,150
,,,,,,,,,,,,,,,,,,,,,,,1,61,2022-05-10_09h37.50.249,tareaTDv3,2020.2.5,Win32,60,,,right,0,2.3191,0,13,13,59,1,5000,0,151000,150
,,,,,,,,,,,,,,,,,,,,,,,1,61,2022-05-10_09h37.50.249,tareaTDv3,2020.2.5,Win32,60,,,left,0,1.2916,0,14,14,81,1,25000,0,55000,90
,,,,,,,,,,,,,,,,,,,,,,,1,61,2022-05-10_09h37.50.249,tareaTDv3,2020.2.5,Win32,60,,,left,0,1.5908,0,15,15,49,1,5000,0,149000,59
,,,,,,,,,,,,,,,,,,,,,,,1,61,2022-05-10_09h37.50.249,tareaTDv3,2020.2.5,Win32,60,,,left,0,3.6401,0,16,16,72,1,25000,0,75000,31
,,,,,,,,,,,,,,,,,,,,,,,1,61,2022-05-10_09h37.50.249,tareaTDv3,2020.2.5,Win32,60,,,right,0,1.5203,0,17,17,40,1,5000,0,14000,31
,,,,,,,,,,,,,,,,,,,,,,,1,61,2022-05-10_09h37.50.249,tareaTDv3,2020.2.5,Win32,60,,,right,1,2.8998,0,18,18,9,1,10000,0,151000,11
,,,,,,,,,,,,,,,,,,,,,,,1,61,2022-05-10_09h37.50.249,tareaTDv3,2020.2.5,Win32,60,,,right,0,1.3176,0,19,19,11,1,10000,0,39000,29
,,,,,,,,,,,,,,,,,,,,,,,1,61,2022-05-10_09h37.50.249,tareaTDv3,2020.2.5,Win32,60,,,right,1,1.479,0,20,20,14,1,10000,0,150000,30
,,,,,,,,,,,,,,,,,,,,,,,1,61,2022-05-10_09h37.50.249,tareaTDv3,2020.2.5,Win32,60,,,left,1,1.2592,0,21,21,68,1,25000,0,125000,9
,,,,,,,,,,,,,,,,,,,,,,,1,61,2022-05-10_09h37.50.249,tareaTDv3,2020.2.5,Win32,60,,,left,1,1.0651,0,22,22,36,1,5000,0,36000,9
,,,,,,,,,,,,,,,,,,,,,,,1,61,2022-05-10_09h37.50.249,tareaTDv3,2020.2.5,Win32,60,,,left,1,1.1861,0,23,23,13,1,10000,0,111000,30
,,,,,,,,,,,,,,,,,,,,,,,1,61,2022-05-10_09h37.50.249,tareaTDv3,2020.2.5,Win32,60,,,left,0,1.5367,0,24,24,51,1,5000,0,35000,89
,,,,,,,,,,,,,,,,,,,,,,,1,61,2022-05-10_09h37.50.249,tareaTDv3,2020.2.5,Win32,60,,,left,1,1.0883,0,25,25,22,1,10000,0,61000,89
,,,,,,,,,,,,,,,,,,,,,,,1,61,2022-05-10_09h37.50.249,tareaTDv3,2020.2.5,Win32,60,,,left,1,1.4021,0,26,26,39,1,5000,0,149000,10
,,,,,,,,,,,,,,,,,,,,,,,1,61,2022-05-10_09h37.50.249,tareaTDv3,2020.2.5,Win32,60,,,right,1,0.8586,0,27,27,33,1,5000,0,104000,5
,,,,,,,,,,,,,,,,,,,,,,,1,61,2022-05-10_09h37.50.249,tareaTDv3,2020.2.5,Win32,60,,,left,0,1.7557,0,28,28,23,1,10000,0,110000,90
,,,,,,,,,,,,,,,,,,,,,,,1,61,2022-05-10_09h37.50.249,tareaTDv3,2020.2.5,Win32,60,,,left,1,3.1257,0,29,29,44,1,5000,0,150000,30
,,,,,,,,,,,,,,,,,,,,,,,1,61,2022-05-10_09h37.50.249,tareaTDv3,2020.2.5,Win32,60,,,left,0,2.0792,0,30,30,28,1,10000,0,109000,149
,,,,,,,,,,,,,,,,,,,,,,,1,61,2022-05-10_09h37.50.249,tareaTDv3,2020.2.5,Win32,60,,,right,1,3.6761,0,31,31,47,1,5000,0,56000,60
,,,,,,,,,,,,,,,,,,,,,,,1,61,2022-05-10_09h37.50.249,tareaTDv3,2020.2.5,Win32,60,,,right,0,1.3567,0,32,32,83,1,25000,0,125000,89
,,,,,,,,,,,,,,,,,,,,,,,1,61,2022-05-10_09h37.50.249,tareaTDv3,2020.2.5,Win32,60,,,left,1,1.745,0,33,33,31,1,5000,0,35000,6
,,,,,,,,,,,,,,,,,,,,,,,1,61,2022-05-10_09h37.50.249,tareaTDv3,2020.2.5,Win32,60,,,right,0,1.7644,0,34,34,55,1,5000,0,14000,149
,,,,,,,,,,,,,,,,,,,,,,,1,61,2022-05-10_09h37.50.249,tareaTDv3,2020.2.5,Win32,60,,,right,0,2.2564,0,35,35,53,1,5000,0,104000,90
,,,,,,,,,,,,,,,,,,,,,,,1,61,2022-05-10_09h37.50.249,tareaTDv3,2020.2.5,Win32,60,,,right,1,1.9356,0,36,36,64,1,25000,0,150000,4
,,,,,,,,,,,,,,,,,,,,,,,1,61,2022-05-10_09h37.50.249,tareaTDv3,2020.2.5,Win32,60,,,left,1,1.1604,0,37,37,69,1,25000,0,150000,9
,,,,,,,,,,,,,,,,,,,,,,,1,61,2022-05-10_09h37.50.249,tareaTDv3,2020.2.5,Win32,60,,,right,0,2.4535,0,38,38,50,1,5000,0,15000,91
,,,,,,,,,,,,,,,,,,,,,,,1,61,2022-05-10_09h37.50.249,tareaTDv3,2020.2.5,Win32,60,,,left,0,1.2514,0,39,39,46,1,5000,0,36000,61
,,,,,,,,,,,,,,,,,,,,,,,1,61,2022-05-10_09h37.50.249,tareaTDv3,2020.2.5,Win32,60,,,left,0,3.5098,0,40,40,17,1,10000,0,60000,60
,,,,,,,,,,,,,,,,,,,,,,,1,61,2022-05-10_09h37.50.249,tareaTDv3,2020.2.5,Win32,60,,,right,0,3.37,0,41,41,25,1,10000,0,10000,150
,,,,,,,,,,,,,,,,,,,,,,,1,61,2022-05-10_09h37.50.249,tareaTDv3,2020.2.5,Win32,60,,,left,0,1.9903,0,42,42,26,1,10000,0,39000,150
,,,,,,,,,,,,,,,,,,,,,,,1,61,2022-05-10_09h37.50.249,tareaTDv3,2020.2.5,Win32,60,,,left,1,2.0434,0,43,43,67,1,25000,0,75000,10
,,,,,,,,,,,,,,,,,,,,,,,1,61,2022-05-10_09h37.50.249,tareaTDv3,2020.2.5,Win32,60,,,left,1,1.5471,0,44,44,60,1,25000,0,35000,5
,,,,,,,,,,,,,,,,,,,,,,,1,61,2022-05-10_09h37.50.249,tareaTDv3,2020.2.5,Win32,60,,,right,1,3.1268,0,45,45,73,1,25000,0,125000,31
,,,,,,,,,,,,,,,,,,,,,,,1,61,2022-05-10_09h37.50.249,tareaTDv3,2020.2.5,Win32,60,,,left,0,2.0429,0,46,46,0,1,10000,0,20000,5
,,,,,,,,,,,,,,,,,,,,,,,1,61,2022-05-10_09h37.50.249,tareaTDv3,2020.2.5,Win32,60,,,left,1,2.5309,0,47,47,74,1,25000,0,150000,29
,,,,,,,,,,,,,,,,,,,,,,,1,61,2022-05-10_09h37.50.249,tareaTDv3,2020.2.5,Win32,60,,,left,1,3.8404,0,48,48,35,1,5000,0,15000,11
,,,,,,,,,,,,,,,,,,,,,,,1,61,2022-05-10_09h37.50.249,tareaTDv3,2020.2.5,Win32,60,,,left,1,1.5595,0,49,49,4,1,10000,0,150000,5
,,,,,,,,,,,,,,,,,,,,,,,1,61,2022-05-10_09h37.50.249,tareaTDv3,2020.2.5,Win32,60,,,left,1,1.7845,0,50,50,61,1,25000,0,55000,6
,,,,,,,,,,,,,,,,,,,,,,,1,61,2022-05-10_09h37.50.249,tareaTDv3,2020.2.5,Win32,60,,,right,0,1.581,0,51,51,45,1,5000,0,15000,61
,,,,,,,,,,,,,,,,,,,,,,,1,61,2022-05-10_09h37.50.249,tareaTDv3,2020.2.5,Win32,60,,,right,0,1.5014,0,52,52,77,1,25000,0,75000,59
,,,,,,,,,,,,,,,,,,,,,,,1,61,2022-05-10_09h37.50.249,tareaTDv3,2020.2.5,Win32,60,,,left,0,1.5342,0,53,53,70,1,25000,0,35000,30
,,,,,,,,,,,,,,,,,,,,,,,1,61,2022-05-10_09h37.50.249,tareaTDv3,2020.2.5,Win32,60,,,right,0,5.2708,0,54,54,19,1,10000,0,149000,61
,,,,,,,,,,,,,,,,,,,,,,,1,61,2022-05-10_09h37.50.249,tareaTDv3,2020.2.5,Win32,60,,,right,0,0.9711,0,55,55,75,1,25000,0,35000,60
,,,,,,,,,,,,,,,,,,,,,,,1,61,2022-05-10_09h37.50.249,tareaTDv3,2020.2.5,Win32,60,,,left,0,0.8807,0,56,56,24,1,10000,0,149000,89
,,,,,,,,,,,,,,,,,,,,,,,1,61,2022-05-10_09h37.50.249,tareaTDv3,2020.2.5,Win32,60,,,left,0,1.4769,0,57,57,82,1,25000,0,75000,90
,,,,,,,,,,,,,,,,,,,,,,,1,61,2022-05-10_09h37.50.249,tareaTDv3,2020.2.5,Win32,60,,,left,1,1.0838,0,58,58,37,1,5000,0,56000,9
,,,,,,,,,,,,,,,,,,,,,,,1,61,2022-05-10_09h37.50.249,tareaTDv3,2020.2.5,Win32,60,,,right,0,2.1274,0,59,59,86,1,25000,0,55000,151
,,,,,,,,,,,,,,,,,,,,,,,1,61,2022-05-10_09h37.50.249,tareaTDv3,2020.2.5,Win32,60,,,right,0,1.7117,0,60,60,42,1,5000,0,56000,29
,,,,,,,,,,,,,,,,,,,,,,,1,61,2022-05-10_09h37.50.249,tareaTDv3,2020.2.5,Win32,60,,,right,1,1.2947,0,61,61,32,1,5000,0,54000,5
,,,,,,,,,,,,,,,,,,,,,,,1,61,2022-05-10_09h37.50.249,tareaTDv3,2020.2.5,Win32,60,,,right,0,2.2654,0,62,62,12,1,10000,0,60000,29
,,,,,,,,,,,,,,,,,,,,,,,1,61,2022-05-10_09h37.50.249,tareaTDv3,2020.2.5,Win32,60,,,left,1,1.1022,0,63,63,1,1,10000,0,39000,6
,,,,,,,,,,,,,,,,,,,,,,,1,61,2022-05-10_09h37.50.249,tareaTDv3,2020.2.5,Win32,60,,,right,0,0.9803,0,64,64,10,1,10000,0,21000,31
,,,,,,,,,,,,,,,,,,,,,,,1,61,2022-05-10_09h37.50.249,tareaTDv3,2020.2.5,Win32,60,,,right,1,2.0504,0,65,65,66,1,25000,0,55000,11
,,,,,,,,,,,,,,,,,,,,,,,1,61,2022-05-10_09h37.50.249,tareaTDv3,2020.2.5,Win32,60,,,left,1,2.4834,0,66,66,79,1,25000,0,150000,61
,,,,,,,,,,,,,,,,,,,,,,,1,61,2022-05-10_09h37.50.249,tareaTDv3,2020.2.5,Win32,60,,,right,1,2.3004,0,67,67,65,1,25000,0,35000,11
,,,,,,,,,,,,,,,,,,,,,,,1,61,2022-05-10_09h37.50.249,tareaTDv3,2020.2.5,Win32,60,,,left,0,4.8389,0,68,68,29,1,10000,0,151000,151
,,,,,,,,,,,,,,,,,,,,,,,1,61,2022-05-10_09h37.50.249,tareaTDv3,2020.2.5,Win32,60,,,left,0,1.2014,0,69,69,87,1,25000,0,75000,151
,,,,,,,,,,,,,,,,,,,,,,,1,61,2022-05-10_09h37.50.249,tareaTDv3,2020.2.5,Win32,60,,,right,0,1.5533,0,70,70,85,1,25000,0,35000,150
,,,,,,,,,,,,,,,,,,,,,,,1,61,2022-05-10_09h37.50.249,tareaTDv3,2020.2.5,Win32,60,,,right,0,2.6523,0,71,71,16,1,10000,0,39000,59
,,,,,,,,,,,,,,,,,,,,,,,1,61,2022-05-10_09h37.50.249,tareaTDv3,2020.2.5,Win32,60,,,left,0,1.8995,0,72,72,89,1,25000,0,150000,150
,,,,,,,,,,,,,,,,,,,,,,,1,61,2022-05-10_09h37.50.249,tareaTDv3,2020.2.5,Win32,60,,,left,0,1.7564,0,73,73,15,1,10000,0,20000,59
,,,,,,,,,,,,,,,,,,,,,,,1,61,2022-05-10_09h37.50.249,tareaTDv3,2020.2.5,Win32,60,,,left,1,1.3822,0,74,74,7,1,10000,0,59000,9
,,,,,,,,,,,,,,,,,,,,,,,1,61,2022-05-10_09h37.50.249,tareaTDv3,2020.2.5,Win32,60,,,left,0,1.8421,0,75,75,20,1,10000,0,20000,90
,,,,,,,,,,,,,,,,,,,,,,,1,61,2022-05-10_09h37.50.249,tareaTDv3,2020.2.5,Win32,60,,,left,1,1.6834,0,76,76,2,1,10000,0,61000,4
,,,,,,,,,,,,,,,,,,,,,,,1,61,2022-05-10_09h37.50.249,tareaTDv3,2020.2.5,Win32,60,,,left,0,1.194,0,77,77,78,1,25000,0,125000,59
,,,,,,,,,,,,,,,,,,,,,,,1,61,2022-05-10_09h37.50.249,tareaTDv3,2020.2.5,Win32,60,,,right,0,5.9928,0,78,78,54,1,5000,0,150000,90
,,,,,,,,,,,,,,,,,,,,,,,1,61,2022-05-10_09h37.50.249,tareaTDv3,2020.2.5,Win32,60,,,right,0,4.6454,0,79,79,71,1,25000,0,55000,30
,,,,,,,,,,,,,,,,,,,,,,,1,61,2022-05-10_09h37.50.249,tareaTDv3,2020.2.5,Win32,60,,,left,0,1.2039,0,80,80,88,1,25000,0,125000,149
,,,,,,,,,,,,,,,,,,,,,,,1,61,2022-05-10_09h37.50.249,tareaTDv3,2020.2.5,Win32,60,,,right,1,2.5093,0,81,81,6,1,10000,0,40000,10
,,,,,,,,,,,,,,,,,,,,,,,1,61,2022-05-10_09h37.50.249,tareaTDv3,2020.2.5,Win32,60,,,right,1,3.3331,0,82,82,34,1,5000,0,151000,4
,,,,,,,,,,,,,,,,,,,,,,,1,61,2022-05-10_09h37.50.249,tareaTDv3,2020.2.5,Win32,60,,,right,0,3.5116,0,83,83,56,1,5000,0,35000,150
,,,,,,,,,,,,,,,,,,,,,,,1,61,2022-05-10_09h37.50.249,tareaTDv3,2020.2.5,Win32,60,,,right,0,1.273,0,84,84,52,1,5000,0,56000,89
,,,,,,,,,,,,,,,,,,,,,,,1,61,2022-05-10_09h37.50.249,tareaTDv3,2020.2.5,Win32,60,,,left,0,1.6303,0,85,85,76,1,25000,0,55000,60
,,,,,,,,,,,,,,,,,,,,,,,1,61,2022-05-10_09h37.50.249,tareaTDv3,2020.2.5,Win32,60,,,left,0,1.9095,0,86,86,21,1,10000,0,40000,91
,,,,,,,,,,,,,,,,,,,,,,,1,61,2022-05-10_09h37.50.249,tareaTDv3,2020.2.5,Win32,60,,,left,0,3.5049,0,87,87,41,1,5000,0,35000,31
,,,,,,,,,,,,,,,,,,,,,,,1,61,2022-05-10_09h37.50.249,tareaTDv3,2020.2.5,Win32,60,,,right,0,1.7011,0,88,88,57,1,5000,0,55000,151
,,,,,,,,,,,,,,,,,,,,,,,1,61,2022-05-10_09h37.50.249,tareaTDv3,2020.2.5,Win32,60,,,right,0,3.2552,0,89,89,43,1,5000,0,106000,29
