key1.keys,key1.rt,key2.keys,key2.rt,key2_2.keys,key2_2.rt,key2_3.keys,key2_3.rt,key3.keys,key3.rt,key4.keys,key4.rt,respP.keys,respP.corr,respP.rt,Practice.thisRepN,Practice.thisTrialN,Practice.thisN,Practice.thisIndex,Practice.ran,ssAmount,llAmount,llDelay,session,participant,date,expName,psychopyVersion,OS,frameRate,key5.keys,key5.rt,respT.keys,respT.corr,trials.thisRepN,trials.thisTrialN,trials.thisN,trials.thisIndex,trials.ran,ss_am,ss_del,ll_am,ll_del,respT.rt
space,4.7456,space,21.3706,space,15.1338,space,4.5111,left,6.5395,space,2.7123,right,0,3.9393,0,0,0,2,1,10000,19000,89,3,68,2022-05-04_08h04.13.439,tareaTDv3,2020.2.5,Win32,60,,,,,,,,,,,,,,
,,,,,,,,,,,,left,0,6.7862,0,1,1,1,1,25000,35000,150,3,68,2022-05-04_08h04.13.439,tareaTDv3,2020.2.5,Win32,60,,,,,,,,,,,,,,
,,,,,,,,,,,,left,1,2.9866,0,2,2,0,1,10000,109000,9,3,68,2022-05-04_08h04.13.439,tareaTDv3,2020.2.5,Win32,60,,,,,,,,,,,,,,
,,,,,,,,,,,,,,,,,,,,,,,3,68,2022-05-04_08h04.13.439,tareaTDv3,2020.2.5,Win32,60,g,5.5513,,0,0,0,0,13,1,10000,0,111000,30,
,,,,,,,,,,,,,,,,,,,,,,,3,68,2022-05-04_08h04.13.439,tareaTDv3,2020.2.5,Win32,60,,,left,1,0,1,1,1,1,10000,0,39000,6,1.7013
,,,,,,,,,,,,,,,,,,,,,,,3,68,2022-05-04_08h04.13.439,tareaTDv3,2020.2.5,Win32,60,,,right,0,0,2,2,74,1,25000,0,150000,29,3.4522
,,,,,,,,,,,,,,,,,,,,,,,3,68,2022-05-04_08h04.13.439,tareaTDv3,2020.2.5,Win32,60,,,left,0,0,3,3,47,1,5000,0,56000,60,2.9012
,,,,,,,,,,,,,,,,,,,,,,,3,68,2022-05-04_08h04.13.439,tareaTDv3,2020.2.5,Win32,60,,,left,0,0,4,4,24,1,10000,0,149000,89,2.3877
,,,,,,,,,,,,,,,,,,,,,,,3,68,2022-05-04_08h04.13.439,tareaTDv3,2020.2.5,Win32,60,,,right,1,0,5,5,61,1,25000,0,55000,6,2.051
,,,,,,,,,,,,,,,,,,,,,,,3,68,2022-05-04_08h04.13.439,tareaTDv3,2020.2.5,Win32,60,,,right,0,0,6,6,50,1,5000,0,15000,91,3.4747
,,,,,,,,,,,,,,,,,,,,,,,3,68,2022-05-04_08h04.13.439,tareaTDv3,2020.2.5,Win32,60,,,left,0,0,7,7,12,1,10000,0,60000,29,1.701
,,,,,,,,,,,,,,,,,,,,,,,3,68,2022-05-04_08h04.13.439,tareaTDv3,2020.2.5,Win32,60,,,right,1,0,8,8,62,1,25000,0,75000,5,1.4398
,,,,,,,,,,,,,,,,,,,,,,,3,68,2022-05-04_08h04.13.439,tareaTDv3,2020.2.5,Win32,60,,,left,1,0,9,9,32,1,5000,0,54000,5,2.4229
,,,,,,,,,,,,,,,,,,,,,,,3,68,2022-05-04_08h04.13.439,tareaTDv3,2020.2.5,Win32,60,,,left,0,0,10,10,21,1,10000,0,40000,91,2.0033
,,,,,,,,,,,,,,,,,,,,,,,3,68,2022-05-04_08h04.13.439,tareaTDv3,2020.2.5,Win32,60,,,left,0,0,11,11,5,1,10000,0,19000,11,1.827
,,,,,,,,,,,,,,,,,,,,,,,3,68,2022-05-04_08h04.13.439,tareaTDv3,2020.2.5,Win32,60,,,right,0,0,12,12,27,1,10000,0,61000,150,0.9079
,,,,,,,,,,,,,,,,,,,,,,,3,68,2022-05-04_08h04.13.439,tareaTDv3,2020.2.5,Win32,60,,,left,0,0,13,13,25,1,10000,0,10000,150,4.424
,,,,,,,,,,,,,,,,,,,,,,,3,68,2022-05-04_08h04.13.439,tareaTDv3,2020.2.5,Win32,60,,,left,1,0,14,14,17,1,10000,0,60000,60,5.8075
,,,,,,,,,,,,,,,,,,,,,,,3,68,2022-05-04_08h04.13.439,tareaTDv3,2020.2.5,Win32,60,,,right,1,0,15,15,37,1,5000,0,56000,9,1.2195
,,,,,,,,,,,,,,,,,,,,,,,3,68,2022-05-04_08h04.13.439,tareaTDv3,2020.2.5,Win32,60,,,right,0,0,16,16,16,1,10000,0,39000,59,2.2898
,,,,,,,,,,,,,,,,,,,,,,,3,68,2022-05-04_08h04.13.439,tareaTDv3,2020.2.5,Win32,60,,,right,0,0,17,17,0,1,10000,0,20000,5,6.0038
,,,,,,,,,,,,,,,,,,,,,,,3,68,2022-05-04_08h04.13.439,tareaTDv3,2020.2.5,Win32,60,,,right,0,0,18,18,71,1,25000,0,55000,30,3.5206
,,,,,,,,,,,,,,,,,,,,,,,3,68,2022-05-04_08h04.13.439,tareaTDv3,2020.2.5,Win32,60,,,left,0,0,19,19,51,1,5000,0,35000,89,1.6358
,,,,,,,,,,,,,,,,,,,,,,,3,68,2022-05-04_08h04.13.439,tareaTDv3,2020.2.5,Win32,60,,,right,0,0,20,20,57,1,5000,0,55000,151,2.8773
,,,,,,,,,,,,,,,,,,,,,,,3,68,2022-05-04_08h04.13.439,tareaTDv3,2020.2.5,Win32,60,,,left,0,0,21,21,45,1,5000,0,15000,61,1.7899
,,,,,,,,,,,,,,,,,,,,,,,3,68,2022-05-04_08h04.13.439,tareaTDv3,2020.2.5,Win32,60,,,right,1,0,22,22,44,1,5000,0,150000,30,2.0544
,,,,,,,,,,,,,,,,,,,,,,,3,68,2022-05-04_08h04.13.439,tareaTDv3,2020.2.5,Win32,60,,,right,0,0,23,23,80,1,25000,0,35000,90,1.4011
,,,,,,,,,,,,,,,,,,,,,,,3,68,2022-05-04_08h04.13.439,tareaTDv3,2020.2.5,Win32,60,,,right,0,0,24,24,85,1,25000,0,35000,150,4.7122
,,,,,,,,,,,,,,,,,,,,,,,3,68,2022-05-04_08h04.13.439,tareaTDv3,2020.2.5,Win32,60,,,left,0,0,25,25,52,1,5000,0,56000,89,1.6511
,,,,,,,,,,,,,,,,,,,,,,,3,68,2022-05-04_08h04.13.439,tareaTDv3,2020.2.5,Win32,60,,,left,1,0,26,26,31,1,5000,0,35000,6,3.3187
,,,,,,,,,,,,,,,,,,,,,,,3,68,2022-05-04_08h04.13.439,tareaTDv3,2020.2.5,Win32,60,,,left,1,0,27,27,68,1,25000,0,125000,9,3.2206
,,,,,,,,,,,,,,,,,,,,,,,3,68,2022-05-04_08h04.13.439,tareaTDv3,2020.2.5,Win32,60,,,right,0,0,28,28,60,1,25000,0,35000,5,3.6202
,,,,,,,,,,,,,,,,,,,,,,,3,68,2022-05-04_08h04.13.439,tareaTDv3,2020.2.5,Win32,60,,,right,1,0,29,29,14,1,10000,0,150000,30,1.8068
,,,,,,,,,,,,,,,,,,,,,,,3,68,2022-05-04_08h04.13.439,tareaTDv3,2020.2.5,Win32,60,,,left,0,0,30,30,76,1,25000,0,55000,60,1.645
,,,,,,,,,,,,,,,,,,,,,,,3,68,2022-05-04_08h04.13.439,tareaTDv3,2020.2.5,Win32,60,,,left,0,0,31,31,10,1,10000,0,21000,31,2.1183
,,,,,,,,,,,,,,,,,,,,,,,3,68,2022-05-04_08h04.13.439,tareaTDv3,2020.2.5,Win32,60,,,left,0,0,32,32,66,1,25000,0,55000,11,1.8677
,,,,,,,,,,,,,,,,,,,,,,,3,68,2022-05-04_08h04.13.439,tareaTDv3,2020.2.5,Win32,60,,,left,1,0,33,33,48,1,5000,0,105000,60,3.5345
,,,,,,,,,,,,,,,,,,,,,,,3,68,2022-05-04_08h04.13.439,tareaTDv3,2020.2.5,Win32,60,,,left,0,0,34,34,87,1,25000,0,75000,151,2.2181
,,,,,,,,,,,,,,,,,,,,,,,3,68,2022-05-04_08h04.13.439,tareaTDv3,2020.2.5,Win32,60,,,right,0,0,35,35,23,1,10000,0,110000,90,13.3361
,,,,,,,,,,,,,,,,,,,,,,,3,68,2022-05-04_08h04.13.439,tareaTDv3,2020.2.5,Win32,60,,,left,0,0,36,36,46,1,5000,0,36000,61,1.3013
,,,,,,,,,,,,,,,,,,,,,,,3,68,2022-05-04_08h04.13.439,tareaTDv3,2020.2.5,Win32,60,,,right,0,0,37,37,86,1,25000,0,55000,151,2.7759
,,,,,,,,,,,,,,,,,,,,,,,3,68,2022-05-04_08h04.13.439,tareaTDv3,2020.2.5,Win32,60,,,right,0,0,38,38,70,1,25000,0,35000,30,1.2345
,,,,,,,,,,,,,,,,,,,,,,,3,68,2022-05-04_08h04.13.439,tareaTDv3,2020.2.5,Win32,60,,,left,1,0,39,39,8,1,10000,0,111000,10,8.1995
,,,,,,,,,,,,,,,,,,,,,,,3,68,2022-05-04_08h04.13.439,tareaTDv3,2020.2.5,Win32,60,,,left,0,0,40,40,20,1,10000,0,20000,90,1.1041
,,,,,,,,,,,,,,,,,,,,,,,3,68,2022-05-04_08h04.13.439,tareaTDv3,2020.2.5,Win32,60,,,right,0,0,41,41,81,1,25000,0,55000,90,2.8531
,,,,,,,,,,,,,,,,,,,,,,,3,68,2022-05-04_08h04.13.439,tareaTDv3,2020.2.5,Win32,60,,,,0,0,42,42,78,1,25000,0,125000,59,
,,,,,,,,,,,,,,,,,,,,,,,3,68,2022-05-04_08h04.13.439,tareaTDv3,2020.2.5,Win32,60,,,right,0,0,43,43,56,1,5000,0,35000,150,2.6842
,,,,,,,,,,,,,,,,,,,,,,,3,68,2022-05-04_08h04.13.439,tareaTDv3,2020.2.5,Win32,60,,,right,1,0,44,44,53,1,5000,0,104000,90,3.5364
,,,,,,,,,,,,,,,,,,,,,,,3,68,2022-05-04_08h04.13.439,tareaTDv3,2020.2.5,Win32,60,,,left,1,0,45,45,6,1,10000,0,40000,10,2.3092
,,,,,,,,,,,,,,,,,,,,,,,3,68,2022-05-04_08h04.13.439,tareaTDv3,2020.2.5,Win32,60,,,right,0,0,46,46,41,1,5000,0,35000,31,1.027
,,,,,,,,,,,,,,,,,,,,,,,3,68,2022-05-04_08h04.13.439,tareaTDv3,2020.2.5,Win32,60,,,right,0,0,47,47,40,1,5000,0,14000,31,2.2967
,,,,,,,,,,,,,,,,,,,,,,,3,68,2022-05-04_08h04.13.439,tareaTDv3,2020.2.5,Win32,60,,,right,0,0,48,48,28,1,10000,0,109000,149,3.2688
,,,,,,,,,,,,,,,,,,,,,,,3,68,2022-05-04_08h04.13.439,tareaTDv3,2020.2.5,Win32,60,,,right,0,0,49,49,35,1,5000,0,15000,11,2.4638
,,,,,,,,,,,,,,,,,,,,,,,3,68,2022-05-04_08h04.13.439,tareaTDv3,2020.2.5,Win32,60,,,left,0,0,50,50,33,1,5000,0,104000,5,1.4028
,,,,,,,,,,,,,,,,,,,,,,,3,68,2022-05-04_08h04.13.439,tareaTDv3,2020.2.5,Win32,60,,,left,1,0,51,51,54,1,5000,0,150000,90,4.6685
,,,,,,,,,,,,,,,,,,,,,,,3,68,2022-05-04_08h04.13.439,tareaTDv3,2020.2.5,Win32,60,,,right,0,0,52,52,11,1,10000,0,39000,29,7.4698
,,,,,,,,,,,,,,,,,,,,,,,3,68,2022-05-04_08h04.13.439,tareaTDv3,2020.2.5,Win32,60,,,left,1,0,53,53,39,1,5000,0,149000,10,0.9709
,,,,,,,,,,,,,,,,,,,,,,,3,68,2022-05-04_08h04.13.439,tareaTDv3,2020.2.5,Win32,60,,,left,1,0,54,54,7,1,10000,0,59000,9,1.8443
,,,,,,,,,,,,,,,,,,,,,,,3,68,2022-05-04_08h04.13.439,tareaTDv3,2020.2.5,Win32,60,,,right,1,0,55,55,29,1,10000,0,151000,151,2.9107
,,,,,,,,,,,,,,,,,,,,,,,3,68,2022-05-04_08h04.13.439,tareaTDv3,2020.2.5,Win32,60,,,right,0,0,56,56,88,1,25000,0,125000,149,1.9178
,,,,,,,,,,,,,,,,,,,,,,,3,68,2022-05-04_08h04.13.439,tareaTDv3,2020.2.5,Win32,60,,,right,1,0,57,57,84,1,25000,0,150000,89,2.2691
,,,,,,,,,,,,,,,,,,,,,,,3,68,2022-05-04_08h04.13.439,tareaTDv3,2020.2.5,Win32,60,,,right,1,0,58,58,3,1,10000,0,109000,5,0.8076
,,,,,,,,,,,,,,,,,,,,,,,3,68,2022-05-04_08h04.13.439,tareaTDv3,2020.2.5,Win32,60,,,left,0,0,59,59,82,1,25000,0,75000,90,2.834
,,,,,,,,,,,,,,,,,,,,,,,3,68,2022-05-04_08h04.13.439,tareaTDv3,2020.2.5,Win32,60,,,right,1,0,60,60,30,1,5000,0,16000,4,4.3579
,,,,,,,,,,,,,,,,,,,,,,,3,68,2022-05-04_08h04.13.439,tareaTDv3,2020.2.5,Win32,60,,,left,1,0,61,61,64,1,25000,0,150000,4,2.3173
,,,,,,,,,,,,,,,,,,,,,,,3,68,2022-05-04_08h04.13.439,tareaTDv3,2020.2.5,Win32,60,,,left,1,0,62,62,18,1,10000,0,110000,60,13.2724
,,,,,,,,,,,,,,,,,,,,,,,3,68,2022-05-04_08h04.13.439,tareaTDv3,2020.2.5,Win32,60,,,right,0,0,63,63,42,1,5000,0,56000,29,4.0574
,,,,,,,,,,,,,,,,,,,,,,,3,68,2022-05-04_08h04.13.439,tareaTDv3,2020.2.5,Win32,60,,,left,1,0,64,64,34,1,5000,0,151000,4,1.3916
,,,,,,,,,,,,,,,,,,,,,,,3,68,2022-05-04_08h04.13.439,tareaTDv3,2020.2.5,Win32,60,,,right,1,0,65,65,69,1,25000,0,150000,9,1.4056
,,,,,,,,,,,,,,,,,,,,,,,3,68,2022-05-04_08h04.13.439,tareaTDv3,2020.2.5,Win32,60,,,right,1,0,66,66,38,1,5000,0,104000,10,1.4417
,,,,,,,,,,,,,,,,,,,,,,,3,68,2022-05-04_08h04.13.439,tareaTDv3,2020.2.5,Win32,60,,,left,0,0,67,67,83,1,25000,0,125000,89,13.2838
,,,,,,,,,,,,,,,,,,,,,,,3,68,2022-05-04_08h04.13.439,tareaTDv3,2020.2.5,Win32,60,,,left,1,0,68,68,43,1,5000,0,106000,29,5.0354
,,,,,,,,,,,,,,,,,,,,,,,3,68,2022-05-04_08h04.13.439,tareaTDv3,2020.2.5,Win32,60,,,right,1,0,69,69,73,1,25000,0,125000,31,2.0846
,,,,,,,,,,,,,,,,,,,,,,,3,68,2022-05-04_08h04.13.439,tareaTDv3,2020.2.5,Win32,60,,,left,0,0,70,70,65,1,25000,0,35000,11,1.9894
,,,,,,,,,,,,,,,,,,,,,,,3,68,2022-05-04_08h04.13.439,tareaTDv3,2020.2.5,Win32,60,,,right,1,0,71,71,19,1,10000,0,149000,61,8.7422
,,,,,,,,,,,,,,,,,,,,,,,3,68,2022-05-04_08h04.13.439,tareaTDv3,2020.2.5,Win32,60,,,left,0,0,72,72,89,1,25000,0,150000,150,4.1932
,,,,,,,,,,,,,,,,,,,,,,,3,68,2022-05-04_08h04.13.439,tareaTDv3,2020.2.5,Win32,60,,,right,1,0,73,73,4,1,10000,0,150000,5,1.3584
,,,,,,,,,,,,,,,,,,,,,,,3,68,2022-05-04_08h04.13.439,tareaTDv3,2020.2.5,Win32,60,,,right,1,0,74,74,9,1,10000,0,151000,11,1.3694
,,,,,,,,,,,,,,,,,,,,,,,3,68,2022-05-04_08h04.13.439,tareaTDv3,2020.2.5,Win32,60,,,right,0,0,75,75,77,1,25000,0,75000,59,6.2758
,,,,,,,,,,,,,,,,,,,,,,,3,68,2022-05-04_08h04.13.439,tareaTDv3,2020.2.5,Win32,60,,,left,1,0,76,76,2,1,10000,0,61000,4,1.9511
,,,,,,,,,,,,,,,,,,,,,,,3,68,2022-05-04_08h04.13.439,tareaTDv3,2020.2.5,Win32,60,,,right,0,0,77,77,55,1,5000,0,14000,149,1.9396
,,,,,,,,,,,,,,,,,,,,,,,3,68,2022-05-04_08h04.13.439,tareaTDv3,2020.2.5,Win32,60,,,right,1,0,78,78,67,1,25000,0,75000,10,1.4506
,,,,,,,,,,,,,,,,,,,,,,,3,68,2022-05-04_08h04.13.439,tareaTDv3,2020.2.5,Win32,60,,,right,0,0,79,79,75,1,25000,0,35000,60,2.9039
,,,,,,,,,,,,,,,,,,,,,,,3,68,2022-05-04_08h04.13.439,tareaTDv3,2020.2.5,Win32,60,,,right,0,0,80,80,22,1,10000,0,61000,89,7.7252
,,,,,,,,,,,,,,,,,,,,,,,3,68,2022-05-04_08h04.13.439,tareaTDv3,2020.2.5,Win32,60,,,left,0,0,81,81,15,1,10000,0,20000,59,1.5009
,,,,,,,,,,,,,,,,,,,,,,,3,68,2022-05-04_08h04.13.439,tareaTDv3,2020.2.5,Win32,60,,,left,0,0,82,82,26,1,10000,0,39000,150,2.6512
,,,,,,,,,,,,,,,,,,,,,,,3,68,2022-05-04_08h04.13.439,tareaTDv3,2020.2.5,Win32,60,,,left,0,0,83,83,72,1,25000,0,75000,31,4.624
,,,,,,,,,,,,,,,,,,,,,,,3,68,2022-05-04_08h04.13.439,tareaTDv3,2020.2.5,Win32,60,,,left,1,0,84,84,49,1,5000,0,149000,59,1.9573
,,,,,,,,,,,,,,,,,,,,,,,3,68,2022-05-04_08h04.13.439,tareaTDv3,2020.2.5,Win32,60,,,left,0,0,85,85,58,1,5000,0,106000,152,1.2055
,,,,,,,,,,,,,,,,,,,,,,,3,68,2022-05-04_08h04.13.439,tareaTDv3,2020.2.5,Win32,60,,,right,1,0,86,86,63,1,25000,0,125000,4,0.7011
,,,,,,,,,,,,,,,,,,,,,,,3,68,2022-05-04_08h04.13.439,tareaTDv3,2020.2.5,Win32,60,,,right,0,0,87,87,59,1,5000,0,151000,150,5.5713
,,,,,,,,,,,,,,,,,,,,,,,3,68,2022-05-04_08h04.13.439,tareaTDv3,2020.2.5,Win32,60,,,right,1,0,88,88,79,1,25000,0,150000,61,1.244
,,,,,,,,,,,,,,,,,,,,,,,3,68,2022-05-04_08h04.13.439,tareaTDv3,2020.2.5,Win32,60,,,left,1,0,89,89,36,1,5000,0,36000,9,2.1396
,,,,,,,,,,,,,,,,,,,,,,,,,,,,,,,,,,,,,,,,,,,
,,,,,,,,,,,,,,,,,,,,,,,,,,,,,,,,,,,,,,,,,,,
,,,,,,,,,,,,,,,,,,,,,,,,,,,,,,,,,,,,,,,,,,,
,,,,,,,,,,,,,,,,,,,,,,,,,,,,,,,,,,,,,,,,,,,
,,,,,,,,,,,,,,,,,,,,,,,,,,,,,,,,,,,,,,,,,,,
,,,,,,,,,,,,,,,,,,,,,,,,,,,,,,,,,,,,,,,,,,,
,,,,,,,,,,,,,,,,,,,,,,,,,,,,,,,,,,,,,,,,,,,
,,,,,,,,,,,,,,,,,,,,,,,,,,,,,,,,,,,,,,,,,,,
,,,,,,,,,,,,,,,,,,,,,,,,,,,,,,,,,,,,,,,,,,,
,,,,,,,,,,,,,,,,,,,,,,,,,,,,,,,,,,,,,,,,,,,
,,,,,,,,,,,,,,,,,,,,,,,,,,,,,,,,,,,,,,,,,,,
,,,,,,,,,,,,,,,,,,,,,,,,,,,,,,,,,,,,,,,,,,,
,,,,,,,,,,,,,,,,,,,,,,,,,,,,,,,,,,,,,,,,,,,