key1.keys,key1.rt,key2.keys,key2.rt,key2_2.keys,key2_2.rt,key2_3.keys,key2_3.rt,key3.keys,key3.rt,key4.keys,key4.rt,respP.keys,respP.corr,respP.rt,Practice.thisRepN,Practice.thisTrialN,Practice.thisN,Practice.thisIndex,Practice.ran,ssAmount,llAmount,llDelay,session,participant,date,expName,psychopyVersion,OS,frameRate,key5.keys,key5.rt,respT.keys,respT.corr,respT.rt,trials.thisRepN,trials.thisTrialN,trials.thisN,trials.thisIndex,trials.ran,ss_am,ss_del,ll_am,ll_del
space,1.71911,space,47.016985,space,12.255115,space,9.508435,right,17.46962,space,2.951955,left,0.0,8.748465,0.0,0.0,0.0,2.0,1.0,10000.0,19000.0,89.0,2,69,2020-11-13_09h49.50.997,tareaTDv3,2020.2.5,Win32,60,,,,,,,,,,,,,,
,,,,,,,,,,,,left,0.0,11.804985,0.0,1.0,1.0,1.0,1.0,25000.0,35000.0,150.0,2,69,2020-11-13_09h49.50.997,tareaTDv3,2020.2.5,Win32,60,,,,,,,,,,,,,,
,,,,,,,,,,,,left,1.0,9.340035,0.0,2.0,2.0,0.0,1.0,10000.0,109000.0,9.0,2,69,2020-11-13_09h49.50.997,tareaTDv3,2020.2.5,Win32,60,,,,,,,,,,,,,,
,,,,,,,,,,,,,,,,,,,,,,,2,69,2020-11-13_09h49.50.997,tareaTDv3,2020.2.5,Win32,60,g,36.590855,right,1.0,4.800205,0.0,0.0,0.0,39.0,1.0,5000.0,0.0,149000.0,10.0
,,,,,,,,,,,,,,,,,,,,,,,2,69,2020-11-13_09h49.50.997,tareaTDv3,2020.2.5,Win32,60,,,right,0.0,8.18586,0.0,1.0,1.0,10.0,1.0,10000.0,0.0,21000.0,31.0
,,,,,,,,,,,,,,,,,,,,,,,2,69,2020-11-13_09h49.50.997,tareaTDv3,2020.2.5,Win32,60,,,left,1.0,2.894565,0.0,2.0,2.0,33.0,1.0,5000.0,0.0,104000.0,5.0
,,,,,,,,,,,,,,,,,,,,,,,2,69,2020-11-13_09h49.50.997,tareaTDv3,2020.2.5,Win32,60,,,right,1.0,3.73448,0.0,3.0,3.0,28.0,1.0,10000.0,0.0,109000.0,149.0
,,,,,,,,,,,,,,,,,,,,,,,2,69,2020-11-13_09h49.50.997,tareaTDv3,2020.2.5,Win32,60,,,right,1.0,1.934735,0.0,4.0,4.0,19.0,1.0,10000.0,0.0,149000.0,61.0
,,,,,,,,,,,,,,,,,,,,,,,2,69,2020-11-13_09h49.50.997,tareaTDv3,2020.2.5,Win32,60,,,right,1.0,2.037775,0.0,5.0,5.0,7.0,1.0,10000.0,0.0,59000.0,9.0
,,,,,,,,,,,,,,,,,,,,,,,2,69,2020-11-13_09h49.50.997,tareaTDv3,2020.2.5,Win32,60,,,left,1.0,2.617555,0.0,6.0,6.0,54.0,1.0,5000.0,0.0,150000.0,90.0
,,,,,,,,,,,,,,,,,,,,,,,2,69,2020-11-13_09h49.50.997,tareaTDv3,2020.2.5,Win32,60,,,left,1.0,4.737315,0.0,7.0,7.0,21.0,1.0,10000.0,0.0,40000.0,91.0
,,,,,,,,,,,,,,,,,,,,,,,2,69,2020-11-13_09h49.50.997,tareaTDv3,2020.2.5,Win32,60,,,left,1.0,2.05171,0.0,8.0,8.0,62.0,1.0,25000.0,0.0,75000.0,5.0
,,,,,,,,,,,,,,,,,,,,,,,2,69,2020-11-13_09h49.50.997,tareaTDv3,2020.2.5,Win32,60,,,left,1.0,4.13541,0.0,9.0,9.0,81.0,1.0,25000.0,0.0,55000.0,90.0
,,,,,,,,,,,,,,,,,,,,,,,2,69,2020-11-13_09h49.50.997,tareaTDv3,2020.2.5,Win32,60,,,right,1.0,4.01799,0.0,10.0,10.0,6.0,1.0,10000.0,0.0,40000.0,10.0
,,,,,,,,,,,,,,,,,,,,,,,2,69,2020-11-13_09h49.50.997,tareaTDv3,2020.2.5,Win32,60,,,right,0.0,3.61345,0.0,11.0,11.0,20.0,1.0,10000.0,0.0,20000.0,90.0
,,,,,,,,,,,,,,,,,,,,,,,2,69,2020-11-13_09h49.50.997,tareaTDv3,2020.2.5,Win32,60,,,right,1.0,6.717675,0.0,12.0,12.0,53.0,1.0,5000.0,0.0,104000.0,90.0
,,,,,,,,,,,,,,,,,,,,,,,2,69,2020-11-13_09h49.50.997,tareaTDv3,2020.2.5,Win32,60,,,left,1.0,6.769375,0.0,13.0,13.0,74.0,1.0,25000.0,0.0,150000.0,29.0
,,,,,,,,,,,,,,,,,,,,,,,2,69,2020-11-13_09h49.50.997,tareaTDv3,2020.2.5,Win32,60,,,right,1.0,10.951745,0.0,14.0,14.0,11.0,1.0,10000.0,0.0,39000.0,29.0
,,,,,,,,,,,,,,,,,,,,,,,2,69,2020-11-13_09h49.50.997,tareaTDv3,2020.2.5,Win32,60,,,left,1.0,4.752145,0.0,15.0,15.0,29.0,1.0,10000.0,0.0,151000.0,151.0
,,,,,,,,,,,,,,,,,,,,,,,2,69,2020-11-13_09h49.50.997,tareaTDv3,2020.2.5,Win32,60,,,right,1.0,2.041595,0.0,16.0,16.0,48.0,1.0,5000.0,0.0,105000.0,60.0
,,,,,,,,,,,,,,,,,,,,,,,2,69,2020-11-13_09h49.50.997,tareaTDv3,2020.2.5,Win32,60,,,right,1.0,2.30481,0.0,17.0,17.0,67.0,1.0,25000.0,0.0,75000.0,10.0
,,,,,,,,,,,,,,,,,,,,,,,2,69,2020-11-13_09h49.50.997,tareaTDv3,2020.2.5,Win32,60,,,right,1.0,3.11356,0.0,18.0,18.0,14.0,1.0,10000.0,0.0,150000.0,30.0
,,,,,,,,,,,,,,,,,,,,,,,2,69,2020-11-13_09h49.50.997,tareaTDv3,2020.2.5,Win32,60,,,right,1.0,5.271655,0.0,19.0,19.0,86.0,1.0,25000.0,0.0,55000.0,151.0
,,,,,,,,,,,,,,,,,,,,,,,2,69,2020-11-13_09h49.50.997,tareaTDv3,2020.2.5,Win32,60,,,left,0.0,8.144195,0.0,20.0,20.0,15.0,1.0,10000.0,0.0,20000.0,59.0
,,,,,,,,,,,,,,,,,,,,,,,2,69,2020-11-13_09h49.50.997,tareaTDv3,2020.2.5,Win32,60,,,right,1.0,9.10422,0.0,21.0,21.0,52.0,1.0,5000.0,0.0,56000.0,89.0
,,,,,,,,,,,,,,,,,,,,,,,2,69,2020-11-13_09h49.50.997,tareaTDv3,2020.2.5,Win32,60,,,left,0.0,5.21214,0.0,22.0,22.0,45.0,1.0,5000.0,0.0,15000.0,61.0
,,,,,,,,,,,,,,,,,,,,,,,2,69,2020-11-13_09h49.50.997,tareaTDv3,2020.2.5,Win32,60,,,right,1.0,1.311695,0.0,23.0,23.0,44.0,1.0,5000.0,0.0,150000.0,30.0
,,,,,,,,,,,,,,,,,,,,,,,2,69,2020-11-13_09h49.50.997,tareaTDv3,2020.2.5,Win32,60,,,right,1.0,1.9093,0.0,24.0,24.0,2.0,1.0,10000.0,0.0,61000.0,4.0
,,,,,,,,,,,,,,,,,,,,,,,2,69,2020-11-13_09h49.50.997,tareaTDv3,2020.2.5,Win32,60,,,right,0.0,5.554585,0.0,25.0,25.0,65.0,1.0,25000.0,0.0,35000.0,11.0
,,,,,,,,,,,,,,,,,,,,,,,2,69,2020-11-13_09h49.50.997,tareaTDv3,2020.2.5,Win32,60,,,right,0.0,4.34984,0.0,26.0,26.0,50.0,1.0,5000.0,0.0,15000.0,91.0
,,,,,,,,,,,,,,,,,,,,,,,2,69,2020-11-13_09h49.50.997,tareaTDv3,2020.2.5,Win32,60,,,left,1.0,1.035495,0.0,27.0,27.0,38.0,1.0,5000.0,0.0,104000.0,10.0
,,,,,,,,,,,,,,,,,,,,,,,2,69,2020-11-13_09h49.50.997,tareaTDv3,2020.2.5,Win32,60,,,right,1.0,2.24342,0.0,28.0,28.0,23.0,1.0,10000.0,0.0,110000.0,90.0
,,,,,,,,,,,,,,,,,,,,,,,2,69,2020-11-13_09h49.50.997,tareaTDv3,2020.2.5,Win32,60,,,left,1.0,1.700165,0.0,29.0,29.0,8.0,1.0,10000.0,0.0,111000.0,10.0
,,,,,,,,,,,,,,,,,,,,,,,2,69,2020-11-13_09h49.50.997,tareaTDv3,2020.2.5,Win32,60,,,left,1.0,2.45661,0.0,30.0,30.0,41.0,1.0,5000.0,0.0,35000.0,31.0
,,,,,,,,,,,,,,,,,,,,,,,2,69,2020-11-13_09h49.50.997,tareaTDv3,2020.2.5,Win32,60,,,left,1.0,2.01398,0.0,31.0,31.0,27.0,1.0,10000.0,0.0,61000.0,150.0
,,,,,,,,,,,,,,,,,,,,,,,2,69,2020-11-13_09h49.50.997,tareaTDv3,2020.2.5,Win32,60,,,right,1.0,5.39698,0.0,32.0,32.0,79.0,1.0,25000.0,0.0,150000.0,61.0
,,,,,,,,,,,,,,,,,,,,,,,2,69,2020-11-13_09h49.50.997,tareaTDv3,2020.2.5,Win32,60,,,right,1.0,2.48488,0.0,33.0,33.0,89.0,1.0,25000.0,0.0,150000.0,150.0
,,,,,,,,,,,,,,,,,,,,,,,2,69,2020-11-13_09h49.50.997,tareaTDv3,2020.2.5,Win32,60,,,left,1.0,7.769395,0.0,34.0,34.0,3.0,1.0,10000.0,0.0,109000.0,5.0
,,,,,,,,,,,,,,,,,,,,,,,2,69,2020-11-13_09h49.50.997,tareaTDv3,2020.2.5,Win32,60,,,left,1.0,1.53471,0.0,35.0,35.0,9.0,1.0,10000.0,0.0,151000.0,11.0
,,,,,,,,,,,,,,,,,,,,,,,2,69,2020-11-13_09h49.50.997,tareaTDv3,2020.2.5,Win32,60,,,right,1.0,1.808405,0.0,36.0,36.0,68.0,1.0,25000.0,0.0,125000.0,9.0
,,,,,,,,,,,,,,,,,,,,,,,2,69,2020-11-13_09h49.50.997,tareaTDv3,2020.2.5,Win32,60,,,left,1.0,2.151015,0.0,37.0,37.0,59.0,1.0,5000.0,0.0,151000.0,150.0
,,,,,,,,,,,,,,,,,,,,,,,2,69,2020-11-13_09h49.50.997,tareaTDv3,2020.2.5,Win32,60,,,right,1.0,2.33556,0.0,38.0,38.0,5.0,1.0,10000.0,0.0,19000.0,11.0
,,,,,,,,,,,,,,,,,,,,,,,2,69,2020-11-13_09h49.50.997,tareaTDv3,2020.2.5,Win32,60,,,right,0.0,3.7832,0.0,39.0,39.0,85.0,1.0,25000.0,0.0,35000.0,150.0
,,,,,,,,,,,,,,,,,,,,,,,2,69,2020-11-13_09h49.50.997,tareaTDv3,2020.2.5,Win32,60,,,left,1.0,1.629805,0.0,40.0,40.0,42.0,1.0,5000.0,0.0,56000.0,29.0
,,,,,,,,,,,,,,,,,,,,,,,2,69,2020-11-13_09h49.50.997,tareaTDv3,2020.2.5,Win32,60,,,right,1.0,1.80257,0.0,41.0,41.0,18.0,1.0,10000.0,0.0,110000.0,60.0
,,,,,,,,,,,,,,,,,,,,,,,2,69,2020-11-13_09h49.50.997,tareaTDv3,2020.2.5,Win32,60,,,right,1.0,1.42442,0.0,42.0,42.0,83.0,1.0,25000.0,0.0,125000.0,89.0
,,,,,,,,,,,,,,,,,,,,,,,2,69,2020-11-13_09h49.50.997,tareaTDv3,2020.2.5,Win32,60,,,left,1.0,3.637485,0.0,43.0,43.0,47.0,1.0,5000.0,0.0,56000.0,60.0
,,,,,,,,,,,,,,,,,,,,,,,2,69,2020-11-13_09h49.50.997,tareaTDv3,2020.2.5,Win32,60,,,right,1.0,0.84416,0.0,44.0,44.0,43.0,1.0,5000.0,0.0,106000.0,29.0
,,,,,,,,,,,,,,,,,,,,,,,2,69,2020-11-13_09h49.50.997,tareaTDv3,2020.2.5,Win32,60,,,right,1.0,3.28408,0.0,45.0,45.0,24.0,1.0,10000.0,0.0,149000.0,89.0
,,,,,,,,,,,,,,,,,,,,,,,2,69,2020-11-13_09h49.50.997,tareaTDv3,2020.2.5,Win32,60,,,left,1.0,2.80151,0.0,46.0,46.0,31.0,1.0,5000.0,0.0,35000.0,6.0
,,,,,,,,,,,,,,,,,,,,,,,2,69,2020-11-13_09h49.50.997,tareaTDv3,2020.2.5,Win32,60,,,right,1.0,1.756125,0.0,47.0,47.0,40.0,1.0,5000.0,0.0,14000.0,31.0
,,,,,,,,,,,,,,,,,,,,,,,2,69,2020-11-13_09h49.50.997,tareaTDv3,2020.2.5,Win32,60,,,left,1.0,1.465635,0.0,48.0,48.0,57.0,1.0,5000.0,0.0,55000.0,151.0
,,,,,,,,,,,,,,,,,,,,,,,2,69,2020-11-13_09h49.50.997,tareaTDv3,2020.2.5,Win32,60,,,right,1.0,1.035765,0.0,49.0,49.0,72.0,1.0,25000.0,0.0,75000.0,31.0
,,,,,,,,,,,,,,,,,,,,,,,2,69,2020-11-13_09h49.50.997,tareaTDv3,2020.2.5,Win32,60,,,right,1.0,1.45154,0.0,50.0,50.0,73.0,1.0,25000.0,0.0,125000.0,31.0
,,,,,,,,,,,,,,,,,,,,,,,2,69,2020-11-13_09h49.50.997,tareaTDv3,2020.2.5,Win32,60,,,right,1.0,1.36945,0.0,51.0,51.0,66.0,1.0,25000.0,0.0,55000.0,11.0
,,,,,,,,,,,,,,,,,,,,,,,2,69,2020-11-13_09h49.50.997,tareaTDv3,2020.2.5,Win32,60,,,right,1.0,1.331,0.0,52.0,52.0,64.0,1.0,25000.0,0.0,150000.0,4.0
,,,,,,,,,,,,,,,,,,,,,,,2,69,2020-11-13_09h49.50.997,tareaTDv3,2020.2.5,Win32,60,,,left,1.0,1.870355,0.0,53.0,53.0,12.0,1.0,10000.0,0.0,60000.0,29.0
,,,,,,,,,,,,,,,,,,,,,,,2,69,2020-11-13_09h49.50.997,tareaTDv3,2020.2.5,Win32,60,,,left,1.0,2.78215,0.0,54.0,54.0,16.0,1.0,10000.0,0.0,39000.0,59.0
,,,,,,,,,,,,,,,,,,,,,,,2,69,2020-11-13_09h49.50.997,tareaTDv3,2020.2.5,Win32,60,,,left,1.0,2.01449,0.0,55.0,55.0,82.0,1.0,25000.0,0.0,75000.0,90.0
,,,,,,,,,,,,,,,,,,,,,,,2,69,2020-11-13_09h49.50.997,tareaTDv3,2020.2.5,Win32,60,,,left,0.0,8.744735,0.0,56.0,56.0,55.0,1.0,5000.0,0.0,14000.0,149.0
,,,,,,,,,,,,,,,,,,,,,,,2,69,2020-11-13_09h49.50.997,tareaTDv3,2020.2.5,Win32,60,,,left,1.0,1.31524,0.0,57.0,57.0,1.0,1.0,10000.0,0.0,39000.0,6.0
,,,,,,,,,,,,,,,,,,,,,,,2,69,2020-11-13_09h49.50.997,tareaTDv3,2020.2.5,Win32,60,,,left,1.0,3.614505,0.0,58.0,58.0,58.0,1.0,5000.0,0.0,106000.0,152.0
,,,,,,,,,,,,,,,,,,,,,,,2,69,2020-11-13_09h49.50.997,tareaTDv3,2020.2.5,Win32,60,,,left,1.0,1.663505,0.0,59.0,59.0,76.0,1.0,25000.0,0.0,55000.0,60.0
,,,,,,,,,,,,,,,,,,,,,,,2,69,2020-11-13_09h49.50.997,tareaTDv3,2020.2.5,Win32,60,,,right,1.0,1.63666,0.0,60.0,60.0,37.0,1.0,5000.0,0.0,56000.0,9.0
,,,,,,,,,,,,,,,,,,,,,,,2,69,2020-11-13_09h49.50.997,tareaTDv3,2020.2.5,Win32,60,,,right,1.0,1.817945,0.0,61.0,61.0,46.0,1.0,5000.0,0.0,36000.0,61.0
,,,,,,,,,,,,,,,,,,,,,,,2,69,2020-11-13_09h49.50.997,tareaTDv3,2020.2.5,Win32,60,,,left,1.0,4.55309,0.0,62.0,62.0,77.0,1.0,25000.0,0.0,75000.0,59.0
,,,,,,,,,,,,,,,,,,,,,,,2,69,2020-11-13_09h49.50.997,tareaTDv3,2020.2.5,Win32,60,,,left,1.0,2.63952,0.0,63.0,63.0,13.0,1.0,10000.0,0.0,111000.0,30.0
,,,,,,,,,,,,,,,,,,,,,,,2,69,2020-11-13_09h49.50.997,tareaTDv3,2020.2.5,Win32,60,,,left,1.0,1.056395,0.0,64.0,64.0,17.0,1.0,10000.0,0.0,60000.0,60.0
,,,,,,,,,,,,,,,,,,,,,,,2,69,2020-11-13_09h49.50.997,tareaTDv3,2020.2.5,Win32,60,,,left,0.0,1.44175,0.0,65.0,65.0,4.0,1.0,10000.0,0.0,150000.0,5.0
,,,,,,,,,,,,,,,,,,,,,,,2,69,2020-11-13_09h49.50.997,tareaTDv3,2020.2.5,Win32,60,,,left,1.0,2.533755,0.0,66.0,66.0,71.0,1.0,25000.0,0.0,55000.0,30.0
,,,,,,,,,,,,,,,,,,,,,,,2,69,2020-11-13_09h49.50.997,tareaTDv3,2020.2.5,Win32,60,,,left,1.0,1.566325,0.0,67.0,67.0,69.0,1.0,25000.0,0.0,150000.0,9.0
,,,,,,,,,,,,,,,,,,,,,,,2,69,2020-11-13_09h49.50.997,tareaTDv3,2020.2.5,Win32,60,,,,0.0,,0.0,68.0,68.0,25.0,1.0,10000.0,0.0,10000.0,150.0
,,,,,,,,,,,,,,,,,,,,,,,2,69,2020-11-13_09h49.50.997,tareaTDv3,2020.2.5,Win32,60,,,left,0.0,4.069955,0.0,69.0,69.0,80.0,1.0,25000.0,0.0,35000.0,90.0
,,,,,,,,,,,,,,,,,,,,,,,2,69,2020-11-13_09h49.50.997,tareaTDv3,2020.2.5,Win32,60,,,left,1.0,4.119285,0.0,70.0,70.0,0.0,1.0,10000.0,0.0,20000.0,5.0
,,,,,,,,,,,,,,,,,,,,,,,2,69,2020-11-13_09h49.50.997,tareaTDv3,2020.2.5,Win32,60,,,left,1.0,3.301535,0.0,71.0,71.0,30.0,1.0,5000.0,0.0,16000.0,4.0
,,,,,,,,,,,,,,,,,,,,,,,2,69,2020-11-13_09h49.50.997,tareaTDv3,2020.2.5,Win32,60,,,right,1.0,1.58457,0.0,72.0,72.0,36.0,1.0,5000.0,0.0,36000.0,9.0
,,,,,,,,,,,,,,,,,,,,,,,2,69,2020-11-13_09h49.50.997,tareaTDv3,2020.2.5,Win32,60,,,left,1.0,2.36765,0.0,73.0,73.0,51.0,1.0,5000.0,0.0,35000.0,89.0
,,,,,,,,,,,,,,,,,,,,,,,2,69,2020-11-13_09h49.50.997,tareaTDv3,2020.2.5,Win32,60,,,left,1.0,1.583625,0.0,74.0,74.0,32.0,1.0,5000.0,0.0,54000.0,5.0
,,,,,,,,,,,,,,,,,,,,,,,2,69,2020-11-13_09h49.50.997,tareaTDv3,2020.2.5,Win32,60,,,left,1.0,1.734185,0.0,75.0,75.0,61.0,1.0,25000.0,0.0,55000.0,6.0
,,,,,,,,,,,,,,,,,,,,,,,2,69,2020-11-13_09h49.50.997,tareaTDv3,2020.2.5,Win32,60,,,left,1.0,3.351155,0.0,76.0,76.0,88.0,1.0,25000.0,0.0,125000.0,149.0
,,,,,,,,,,,,,,,,,,,,,,,2,69,2020-11-13_09h49.50.997,tareaTDv3,2020.2.5,Win32,60,,,right,1.0,1.001765,0.0,77.0,77.0,49.0,1.0,5000.0,0.0,149000.0,59.0
,,,,,,,,,,,,,,,,,,,,,,,2,69,2020-11-13_09h49.50.997,tareaTDv3,2020.2.5,Win32,60,,,right,1.0,3.53447,0.0,78.0,78.0,35.0,1.0,5000.0,0.0,15000.0,11.0
,,,,,,,,,,,,,,,,,,,,,,,2,69,2020-11-13_09h49.50.997,tareaTDv3,2020.2.5,Win32,60,,,left,1.0,1.802375,0.0,79.0,79.0,56.0,1.0,5000.0,0.0,35000.0,150.0
,,,,,,,,,,,,,,,,,,,,,,,2,69,2020-11-13_09h49.50.997,tareaTDv3,2020.2.5,Win32,60,,,left,1.0,2.71819,0.0,80.0,80.0,78.0,1.0,25000.0,0.0,125000.0,59.0
,,,,,,,,,,,,,,,,,,,,,,,2,69,2020-11-13_09h49.50.997,tareaTDv3,2020.2.5,Win32,60,,,right,1.0,4.46884,0.0,81.0,81.0,87.0,1.0,25000.0,0.0,75000.0,151.0
,,,,,,,,,,,,,,,,,,,,,,,2,69,2020-11-13_09h49.50.997,tareaTDv3,2020.2.5,Win32,60,,,left,0.0,5.193045,0.0,82.0,82.0,75.0,1.0,25000.0,0.0,35000.0,60.0
,,,,,,,,,,,,,,,,,,,,,,,2,69,2020-11-13_09h49.50.997,tareaTDv3,2020.2.5,Win32,60,,,left,1.0,4.806125,0.0,83.0,83.0,60.0,1.0,25000.0,0.0,35000.0,5.0
,,,,,,,,,,,,,,,,,,,,,,,2,69,2020-11-13_09h49.50.997,tareaTDv3,2020.2.5,Win32,60,,,right,1.0,3.833025,0.0,84.0,84.0,26.0,1.0,10000.0,0.0,39000.0,150.0
,,,,,,,,,,,,,,,,,,,,,,,2,69,2020-11-13_09h49.50.997,tareaTDv3,2020.2.5,Win32,60,,,right,1.0,3.200655,0.0,85.0,85.0,34.0,1.0,5000.0,0.0,151000.0,4.0
,,,,,,,,,,,,,,,,,,,,,,,2,69,2020-11-13_09h49.50.997,tareaTDv3,2020.2.5,Win32,60,,,left,1.0,2.555645,0.0,86.0,86.0,22.0,1.0,10000.0,0.0,61000.0,89.0
,,,,,,,,,,,,,,,,,,,,,,,2,69,2020-11-13_09h49.50.997,tareaTDv3,2020.2.5,Win32,60,,,right,1.0,1.82908,0.0,87.0,87.0,84.0,1.0,25000.0,0.0,150000.0,89.0
,,,,,,,,,,,,,,,,,,,,,,,2,69,2020-11-13_09h49.50.997,tareaTDv3,2020.2.5,Win32,60,,,right,1.0,1.71854,0.0,88.0,88.0,63.0,1.0,25000.0,0.0,125000.0,4.0
,,,,,,,,,,,,,,,,,,,,,,,2,69,2020-11-13_09h49.50.997,tareaTDv3,2020.2.5,Win32,60,,,left,1.0,1.97153,0.0,89.0,89.0,70.0,1.0,25000.0,0.0,35000.0,30.0
