key1.keys,key1.rt,key2.keys,key2.rt,key2_2.keys,key2_2.rt,key2_3.keys,key2_3.rt,key3.keys,key3.rt,key4.keys,key4.rt,respP.keys,respP.corr,respP.rt,Practice.thisRepN,Practice.thisTrialN,Practice.thisN,Practice.thisIndex,Practice.ran,ssAmount,llAmount,llDelay,session,participant,date,expName,psychopyVersion,OS,frameRate,key5.keys,key5.rt,respT.keys,respT.corr,respT.rt,trials.thisRepN,trials.thisTrialN,trials.thisN,trials.thisIndex,trials.ran,ss_am,ss_del,ll_am,ll_del,key_resp_4.keys,key_resp_4.rt
space,10.3127,space,14.7307,space,10.537,space,2.7339,right,12.7301,space,1.0124,right,1.0,4.2885,0.0,0.0,0.0,0.0,1.0,10000.0,109000.0,9.0,2,75,2021-10-30_09h53.40.490,tareaTDv3,2020.2.5,Win32,60,,,,,,,,,,,,,,,,
,,,,,,,,,,,,right,0.0,3.44,0.0,1.0,1.0,2.0,1.0,10000.0,19000.0,89.0,2,75,2021-10-30_09h53.40.490,tareaTDv3,2020.2.5,Win32,60,,,,,,,,,,,,,,,,
,,,,,,,,,,,,right,0.0,2.4749,0.0,2.0,2.0,1.0,1.0,25000.0,35000.0,150.0,2,75,2021-10-30_09h53.40.490,tareaTDv3,2020.2.5,Win32,60,,,,,,,,,,,,,,,,
,,,,,,,,,,,,,,,,,,,,,,,2,75,2021-10-30_09h53.40.490,tareaTDv3,2020.2.5,Win32,60,g,11.8507,right,1.0,4.0249,0.0,0.0,0.0,52.0,1.0,5000.0,0.0,56000.0,89.0,,
,,,,,,,,,,,,,,,,,,,,,,,2,75,2021-10-30_09h53.40.490,tareaTDv3,2020.2.5,Win32,60,,,left,1.0,2.5873,0.0,1.0,1.0,39.0,1.0,5000.0,0.0,149000.0,10.0,,
,,,,,,,,,,,,,,,,,,,,,,,2,75,2021-10-30_09h53.40.490,tareaTDv3,2020.2.5,Win32,60,,,right,1.0,3.6548,0.0,2.0,2.0,33.0,1.0,5000.0,0.0,104000.0,5.0,,
,,,,,,,,,,,,,,,,,,,,,,,2,75,2021-10-30_09h53.40.490,tareaTDv3,2020.2.5,Win32,60,,,right,1.0,2.615,0.0,3.0,3.0,1.0,1.0,10000.0,0.0,39000.0,6.0,,
,,,,,,,,,,,,,,,,,,,,,,,2,75,2021-10-30_09h53.40.490,tareaTDv3,2020.2.5,Win32,60,,,right,0.0,1.777,0.0,4.0,4.0,80.0,1.0,25000.0,0.0,35000.0,90.0,,
,,,,,,,,,,,,,,,,,,,,,,,2,75,2021-10-30_09h53.40.490,tareaTDv3,2020.2.5,Win32,60,,,left,0.0,2.3171,0.0,5.0,5.0,86.0,1.0,25000.0,0.0,55000.0,151.0,,
,,,,,,,,,,,,,,,,,,,,,,,2,75,2021-10-30_09h53.40.490,tareaTDv3,2020.2.5,Win32,60,,,left,1.0,2.6897,0.0,6.0,6.0,0.0,1.0,10000.0,0.0,20000.0,5.0,,
,,,,,,,,,,,,,,,,,,,,,,,2,75,2021-10-30_09h53.40.490,tareaTDv3,2020.2.5,Win32,60,,,left,0.0,1.6906,0.0,7.0,7.0,77.0,1.0,25000.0,0.0,75000.0,59.0,,
,,,,,,,,,,,,,,,,,,,,,,,2,75,2021-10-30_09h53.40.490,tareaTDv3,2020.2.5,Win32,60,,,left,1.0,3.6428,0.0,8.0,8.0,89.0,1.0,25000.0,0.0,150000.0,150.0,,
,,,,,,,,,,,,,,,,,,,,,,,2,75,2021-10-30_09h53.40.490,tareaTDv3,2020.2.5,Win32,60,,,left,0.0,4.0913,0.0,9.0,9.0,76.0,1.0,25000.0,0.0,55000.0,60.0,,
,,,,,,,,,,,,,,,,,,,,,,,2,75,2021-10-30_09h53.40.490,tareaTDv3,2020.2.5,Win32,60,,,right,1.0,2.4116,0.0,10.0,10.0,30.0,1.0,5000.0,0.0,16000.0,4.0,,
,,,,,,,,,,,,,,,,,,,,,,,2,75,2021-10-30_09h53.40.490,tareaTDv3,2020.2.5,Win32,60,,,left,1.0,2.3669,0.0,11.0,11.0,73.0,1.0,25000.0,0.0,125000.0,31.0,,
,,,,,,,,,,,,,,,,,,,,,,,2,75,2021-10-30_09h53.40.490,tareaTDv3,2020.2.5,Win32,60,,,right,0.0,4.7545,0.0,12.0,12.0,79.0,1.0,25000.0,0.0,150000.0,61.0,,
,,,,,,,,,,,,,,,,,,,,,,,2,75,2021-10-30_09h53.40.490,tareaTDv3,2020.2.5,Win32,60,,,left,1.0,1.1117,0.0,13.0,13.0,8.0,1.0,10000.0,0.0,111000.0,10.0,,
,,,,,,,,,,,,,,,,,,,,,,,2,75,2021-10-30_09h53.40.490,tareaTDv3,2020.2.5,Win32,60,,,left,1.0,3.7905,0.0,14.0,14.0,16.0,1.0,10000.0,0.0,39000.0,59.0,,
,,,,,,,,,,,,,,,,,,,,,,,2,75,2021-10-30_09h53.40.490,tareaTDv3,2020.2.5,Win32,60,,,right,1.0,2.6011,0.0,15.0,15.0,13.0,1.0,10000.0,0.0,111000.0,30.0,,
,,,,,,,,,,,,,,,,,,,,,,,2,75,2021-10-30_09h53.40.490,tareaTDv3,2020.2.5,Win32,60,,,left,1.0,3.1554,0.0,16.0,16.0,54.0,1.0,5000.0,0.0,150000.0,90.0,,
,,,,,,,,,,,,,,,,,,,,,,,2,75,2021-10-30_09h53.40.490,tareaTDv3,2020.2.5,Win32,60,,,right,1.0,4.1362,0.0,17.0,17.0,70.0,1.0,25000.0,0.0,35000.0,30.0,,
,,,,,,,,,,,,,,,,,,,,,,,2,75,2021-10-30_09h53.40.490,tareaTDv3,2020.2.5,Win32,60,,,right,1.0,1.4615,0.0,18.0,18.0,61.0,1.0,25000.0,0.0,55000.0,6.0,,
,,,,,,,,,,,,,,,,,,,,,,,2,75,2021-10-30_09h53.40.490,tareaTDv3,2020.2.5,Win32,60,,,right,0.0,1.678,0.0,19.0,19.0,87.0,1.0,25000.0,0.0,75000.0,151.0,,
,,,,,,,,,,,,,,,,,,,,,,,2,75,2021-10-30_09h53.40.490,tareaTDv3,2020.2.5,Win32,60,,,left,0.0,1.7903,0.0,20.0,20.0,27.0,1.0,10000.0,0.0,61000.0,150.0,,
,,,,,,,,,,,,,,,,,,,,,,,2,75,2021-10-30_09h53.40.490,tareaTDv3,2020.2.5,Win32,60,,,right,1.0,4.5058,0.0,21.0,21.0,59.0,1.0,5000.0,0.0,151000.0,150.0,,
,,,,,,,,,,,,,,,,,,,,,,,2,75,2021-10-30_09h53.40.490,tareaTDv3,2020.2.5,Win32,60,,,right,0.0,2.1691,0.0,22.0,22.0,75.0,1.0,25000.0,0.0,35000.0,60.0,,
,,,,,,,,,,,,,,,,,,,,,,,2,75,2021-10-30_09h53.40.490,tareaTDv3,2020.2.5,Win32,60,,,left,1.0,2.6915,0.0,23.0,23.0,42.0,1.0,5000.0,0.0,56000.0,29.0,,
,,,,,,,,,,,,,,,,,,,,,,,2,75,2021-10-30_09h53.40.490,tareaTDv3,2020.2.5,Win32,60,,,right,0.0,2.3008,0.0,24.0,24.0,56.0,1.0,5000.0,0.0,35000.0,150.0,,
,,,,,,,,,,,,,,,,,,,,,,,2,75,2021-10-30_09h53.40.490,tareaTDv3,2020.2.5,Win32,60,,,right,1.0,4.0673,0.0,25.0,25.0,34.0,1.0,5000.0,0.0,151000.0,4.0,,
,,,,,,,,,,,,,,,,,,,,,,,2,75,2021-10-30_09h53.40.490,tareaTDv3,2020.2.5,Win32,60,,,right,0.0,2.4679,0.0,26.0,26.0,83.0,1.0,25000.0,0.0,125000.0,89.0,,
,,,,,,,,,,,,,,,,,,,,,,,2,75,2021-10-30_09h53.40.490,tareaTDv3,2020.2.5,Win32,60,,,left,0.0,1.3943,0.0,27.0,27.0,51.0,1.0,5000.0,0.0,35000.0,89.0,,
,,,,,,,,,,,,,,,,,,,,,,,2,75,2021-10-30_09h53.40.490,tareaTDv3,2020.2.5,Win32,60,,,right,0.0,1.2614,0.0,28.0,28.0,85.0,1.0,25000.0,0.0,35000.0,150.0,,
,,,,,,,,,,,,,,,,,,,,,,,2,75,2021-10-30_09h53.40.490,tareaTDv3,2020.2.5,Win32,60,,,right,1.0,3.4227,0.0,29.0,29.0,17.0,1.0,10000.0,0.0,60000.0,60.0,,
,,,,,,,,,,,,,,,,,,,,,,,2,75,2021-10-30_09h53.40.490,tareaTDv3,2020.2.5,Win32,60,,,right,0.0,2.376,0.0,30.0,30.0,21.0,1.0,10000.0,0.0,40000.0,91.0,,
,,,,,,,,,,,,,,,,,,,,,,,2,75,2021-10-30_09h53.40.490,tareaTDv3,2020.2.5,Win32,60,,,right,0.0,0.7182,0.0,31.0,31.0,29.0,1.0,10000.0,0.0,151000.0,151.0,,
,,,,,,,,,,,,,,,,,,,,,,,2,75,2021-10-30_09h53.40.490,tareaTDv3,2020.2.5,Win32,60,,,right,1.0,3.5544,0.0,32.0,32.0,71.0,1.0,25000.0,0.0,55000.0,30.0,,
,,,,,,,,,,,,,,,,,,,,,,,2,75,2021-10-30_09h53.40.490,tareaTDv3,2020.2.5,Win32,60,,,left,0.0,2.3332,0.0,33.0,33.0,84.0,1.0,25000.0,0.0,150000.0,89.0,,
,,,,,,,,,,,,,,,,,,,,,,,2,75,2021-10-30_09h53.40.490,tareaTDv3,2020.2.5,Win32,60,,,left,0.0,1.6002,0.0,34.0,34.0,69.0,1.0,25000.0,0.0,150000.0,9.0,,
,,,,,,,,,,,,,,,,,,,,,,,2,75,2021-10-30_09h53.40.490,tareaTDv3,2020.2.5,Win32,60,,,left,1.0,1.9199,0.0,35.0,35.0,4.0,1.0,10000.0,0.0,150000.0,5.0,,
,,,,,,,,,,,,,,,,,,,,,,,2,75,2021-10-30_09h53.40.490,tareaTDv3,2020.2.5,Win32,60,,,left,0.0,2.2505,0.0,36.0,36.0,50.0,1.0,5000.0,0.0,15000.0,91.0,,
,,,,,,,,,,,,,,,,,,,,,,,2,75,2021-10-30_09h53.40.490,tareaTDv3,2020.2.5,Win32,60,,,left,1.0,3.8064,0.0,37.0,37.0,43.0,1.0,5000.0,0.0,106000.0,29.0,,
,,,,,,,,,,,,,,,,,,,,,,,2,75,2021-10-30_09h53.40.490,tareaTDv3,2020.2.5,Win32,60,,,left,1.0,2.0252,0.0,38.0,38.0,14.0,1.0,10000.0,0.0,150000.0,30.0,,
,,,,,,,,,,,,,,,,,,,,,,,2,75,2021-10-30_09h53.40.490,tareaTDv3,2020.2.5,Win32,60,,,right,1.0,2.4754,0.0,39.0,39.0,37.0,1.0,5000.0,0.0,56000.0,9.0,,
,,,,,,,,,,,,,,,,,,,,,,,2,75,2021-10-30_09h53.40.490,tareaTDv3,2020.2.5,Win32,60,,,right,0.0,0.9235,0.0,40.0,40.0,74.0,1.0,25000.0,0.0,150000.0,29.0,,
,,,,,,,,,,,,,,,,,,,,,,,2,75,2021-10-30_09h53.40.490,tareaTDv3,2020.2.5,Win32,60,,,right,1.0,4.5374,0.0,41.0,41.0,35.0,1.0,5000.0,0.0,15000.0,11.0,,
,,,,,,,,,,,,,,,,,,,,,,,2,75,2021-10-30_09h53.40.490,tareaTDv3,2020.2.5,Win32,60,,,right,0.0,2.2167,0.0,42.0,42.0,65.0,1.0,25000.0,0.0,35000.0,11.0,,
,,,,,,,,,,,,,,,,,,,,,,,2,75,2021-10-30_09h53.40.490,tareaTDv3,2020.2.5,Win32,60,,,right,1.0,2.3368,0.0,43.0,43.0,44.0,1.0,5000.0,0.0,150000.0,30.0,,
,,,,,,,,,,,,,,,,,,,,,,,2,75,2021-10-30_09h53.40.490,tareaTDv3,2020.2.5,Win32,60,,,right,1.0,1.5571,0.0,44.0,44.0,62.0,1.0,25000.0,0.0,75000.0,5.0,,
,,,,,,,,,,,,,,,,,,,,,,,2,75,2021-10-30_09h53.40.490,tareaTDv3,2020.2.5,Win32,60,,,right,1.0,1.1338,0.0,45.0,45.0,36.0,1.0,5000.0,0.0,36000.0,9.0,,
,,,,,,,,,,,,,,,,,,,,,,,2,75,2021-10-30_09h53.40.490,tareaTDv3,2020.2.5,Win32,60,,,left,1.0,1.6012,0.0,46.0,46.0,6.0,1.0,10000.0,0.0,40000.0,10.0,,
,,,,,,,,,,,,,,,,,,,,,,,2,75,2021-10-30_09h53.40.490,tareaTDv3,2020.2.5,Win32,60,,,left,0.0,1.5057,0.0,47.0,47.0,28.0,1.0,10000.0,0.0,109000.0,149.0,,
,,,,,,,,,,,,,,,,,,,,,,,2,75,2021-10-30_09h53.40.490,tareaTDv3,2020.2.5,Win32,60,,,right,0.0,0.8892,0.0,48.0,48.0,45.0,1.0,5000.0,0.0,15000.0,61.0,,
,,,,,,,,,,,,,,,,,,,,,,,2,75,2021-10-30_09h53.40.490,tareaTDv3,2020.2.5,Win32,60,,,right,0.0,0.8727,0.0,49.0,49.0,48.0,1.0,5000.0,0.0,105000.0,60.0,,
,,,,,,,,,,,,,,,,,,,,,,,2,75,2021-10-30_09h53.40.490,tareaTDv3,2020.2.5,Win32,60,,,left,1.0,5.0999,0.0,50.0,50.0,18.0,1.0,10000.0,0.0,110000.0,60.0,,
,,,,,,,,,,,,,,,,,,,,,,,2,75,2021-10-30_09h53.40.490,tareaTDv3,2020.2.5,Win32,60,,,right,1.0,1.5355,0.0,51.0,51.0,2.0,1.0,10000.0,0.0,61000.0,4.0,,
,,,,,,,,,,,,,,,,,,,,,,,2,75,2021-10-30_09h53.40.490,tareaTDv3,2020.2.5,Win32,60,,,left,1.0,1.9726,0.0,52.0,52.0,32.0,1.0,5000.0,0.0,54000.0,5.0,,
,,,,,,,,,,,,,,,,,,,,,,,2,75,2021-10-30_09h53.40.490,tareaTDv3,2020.2.5,Win32,60,,,right,0.0,1.8173,0.0,53.0,53.0,53.0,1.0,5000.0,0.0,104000.0,90.0,,
,,,,,,,,,,,,,,,,,,,,,,,2,75,2021-10-30_09h53.40.490,tareaTDv3,2020.2.5,Win32,60,,,right,0.0,2.1669,0.0,54.0,54.0,25.0,1.0,10000.0,0.0,10000.0,150.0,,
,,,,,,,,,,,,,,,,,,,,,,,2,75,2021-10-30_09h53.40.490,tareaTDv3,2020.2.5,Win32,60,,,right,0.0,1.4044,0.0,55.0,55.0,23.0,1.0,10000.0,0.0,110000.0,90.0,,
,,,,,,,,,,,,,,,,,,,,,,,2,75,2021-10-30_09h53.40.490,tareaTDv3,2020.2.5,Win32,60,,,right,0.0,0.7295,0.0,56.0,56.0,88.0,1.0,25000.0,0.0,125000.0,149.0,,
,,,,,,,,,,,,,,,,,,,,,,,2,75,2021-10-30_09h53.40.490,tareaTDv3,2020.2.5,Win32,60,,,left,0.0,1.7267,0.0,57.0,57.0,81.0,1.0,25000.0,0.0,55000.0,90.0,,
,,,,,,,,,,,,,,,,,,,,,,,2,75,2021-10-30_09h53.40.490,tareaTDv3,2020.2.5,Win32,60,,,left,1.0,14.2875,0.0,58.0,58.0,63.0,1.0,25000.0,0.0,125000.0,4.0,,
,,,,,,,,,,,,,,,,,,,,,,,2,75,2021-10-30_09h53.40.490,tareaTDv3,2020.2.5,Win32,60,,,left,0.0,1.0905,0.0,59.0,59.0,24.0,1.0,10000.0,0.0,149000.0,89.0,,
,,,,,,,,,,,,,,,,,,,,,,,2,75,2021-10-30_09h53.40.490,tareaTDv3,2020.2.5,Win32,60,,,right,0.0,0.6351,0.0,60.0,60.0,12.0,1.0,10000.0,0.0,60000.0,29.0,,
,,,,,,,,,,,,,,,,,,,,,,,2,75,2021-10-30_09h53.40.490,tareaTDv3,2020.2.5,Win32,60,,,right,0.0,1.1725,0.0,61.0,61.0,15.0,1.0,10000.0,0.0,20000.0,59.0,,
,,,,,,,,,,,,,,,,,,,,,,,2,75,2021-10-30_09h53.40.490,tareaTDv3,2020.2.5,Win32,60,,,right,0.0,0.9193,0.0,62.0,62.0,40.0,1.0,5000.0,0.0,14000.0,31.0,,
,,,,,,,,,,,,,,,,,,,,,,,2,75,2021-10-30_09h53.40.490,tareaTDv3,2020.2.5,Win32,60,,,right,1.0,1.5754,0.0,63.0,63.0,68.0,1.0,25000.0,0.0,125000.0,9.0,,
,,,,,,,,,,,,,,,,,,,,,,,2,75,2021-10-30_09h53.40.490,tareaTDv3,2020.2.5,Win32,60,,,right,0.0,3.033,0.0,64.0,64.0,46.0,1.0,5000.0,0.0,36000.0,61.0,,
,,,,,,,,,,,,,,,,,,,,,,,2,75,2021-10-30_09h53.40.490,tareaTDv3,2020.2.5,Win32,60,,,left,1.0,11.5703,0.0,65.0,65.0,67.0,1.0,25000.0,0.0,75000.0,10.0,,
,,,,,,,,,,,,,,,,,,,,,,,2,75,2021-10-30_09h53.40.490,tareaTDv3,2020.2.5,Win32,60,,,right,0.0,0.8252,0.0,66.0,66.0,11.0,1.0,10000.0,0.0,39000.0,29.0,,
,,,,,,,,,,,,,,,,,,,,,,,2,75,2021-10-30_09h53.40.490,tareaTDv3,2020.2.5,Win32,60,,,right,1.0,5.7872,0.0,67.0,67.0,31.0,1.0,5000.0,0.0,35000.0,6.0,,
,,,,,,,,,,,,,,,,,,,,,,,2,75,2021-10-30_09h53.40.490,tareaTDv3,2020.2.5,Win32,60,,,right,0.0,1.1422,0.0,68.0,68.0,26.0,1.0,10000.0,0.0,39000.0,150.0,,
,,,,,,,,,,,,,,,,,,,,,,,2,75,2021-10-30_09h53.40.490,tareaTDv3,2020.2.5,Win32,60,,,right,1.0,1.0196,0.0,69.0,69.0,38.0,1.0,5000.0,0.0,104000.0,10.0,,
,,,,,,,,,,,,,,,,,,,,,,,2,75,2021-10-30_09h53.40.490,tareaTDv3,2020.2.5,Win32,60,,,left,0.0,4.4385,0.0,70.0,70.0,55.0,1.0,5000.0,0.0,14000.0,149.0,,
,,,,,,,,,,,,,,,,,,,,,,,2,75,2021-10-30_09h53.40.490,tareaTDv3,2020.2.5,Win32,60,,,right,1.0,1.8678,0.0,71.0,71.0,19.0,1.0,10000.0,0.0,149000.0,61.0,,
,,,,,,,,,,,,,,,,,,,,,,,2,75,2021-10-30_09h53.40.490,tareaTDv3,2020.2.5,Win32,60,,,right,1.0,1.0073,0.0,72.0,72.0,47.0,1.0,5000.0,0.0,56000.0,60.0,,
,,,,,,,,,,,,,,,,,,,,,,,2,75,2021-10-30_09h53.40.490,tareaTDv3,2020.2.5,Win32,60,,,right,0.0,1.5455,0.0,73.0,73.0,10.0,1.0,10000.0,0.0,21000.0,31.0,,
,,,,,,,,,,,,,,,,,,,,,,,2,75,2021-10-30_09h53.40.490,tareaTDv3,2020.2.5,Win32,60,,,right,0.0,1.2346,0.0,74.0,74.0,57.0,1.0,5000.0,0.0,55000.0,151.0,,
,,,,,,,,,,,,,,,,,,,,,,,2,75,2021-10-30_09h53.40.490,tareaTDv3,2020.2.5,Win32,60,,,right,1.0,3.7923,0.0,75.0,75.0,66.0,1.0,25000.0,0.0,55000.0,11.0,,
,,,,,,,,,,,,,,,,,,,,,,,2,75,2021-10-30_09h53.40.490,tareaTDv3,2020.2.5,Win32,60,,,left,1.0,2.827,0.0,76.0,76.0,3.0,1.0,10000.0,0.0,109000.0,5.0,,
,,,,,,,,,,,,,,,,,,,,,,,2,75,2021-10-30_09h53.40.490,tareaTDv3,2020.2.5,Win32,60,,,left,1.0,4.0176,0.0,77.0,77.0,5.0,1.0,10000.0,0.0,19000.0,11.0,,
,,,,,,,,,,,,,,,,,,,,,,,2,75,2021-10-30_09h53.40.490,tareaTDv3,2020.2.5,Win32,60,,,left,1.0,1.6008,0.0,78.0,78.0,72.0,1.0,25000.0,0.0,75000.0,31.0,,
,,,,,,,,,,,,,,,,,,,,,,,2,75,2021-10-30_09h53.40.490,tareaTDv3,2020.2.5,Win32,60,,,right,0.0,2.8371,0.0,79.0,79.0,82.0,1.0,25000.0,0.0,75000.0,90.0,,
,,,,,,,,,,,,,,,,,,,,,,,2,75,2021-10-30_09h53.40.490,tareaTDv3,2020.2.5,Win32,60,,,right,0.0,0.9831,0.0,80.0,80.0,22.0,1.0,10000.0,0.0,61000.0,89.0,,
,,,,,,,,,,,,,,,,,,,,,,,2,75,2021-10-30_09h53.40.490,tareaTDv3,2020.2.5,Win32,60,,,right,1.0,5.7004,0.0,81.0,81.0,7.0,1.0,10000.0,0.0,59000.0,9.0,,
,,,,,,,,,,,,,,,,,,,,,,,2,75,2021-10-30_09h53.40.490,tareaTDv3,2020.2.5,Win32,60,,,left,0.0,13.8545,0.0,82.0,82.0,41.0,1.0,5000.0,0.0,35000.0,31.0,,
,,,,,,,,,,,,,,,,,,,,,,,2,75,2021-10-30_09h53.40.490,tareaTDv3,2020.2.5,Win32,60,,,left,1.0,1.8014,0.0,83.0,83.0,9.0,1.0,10000.0,0.0,151000.0,11.0,,
,,,,,,,,,,,,,,,,,,,,,,,2,75,2021-10-30_09h53.40.490,tareaTDv3,2020.2.5,Win32,60,,,left,0.0,2.084,0.0,84.0,84.0,20.0,1.0,10000.0,0.0,20000.0,90.0,,
,,,,,,,,,,,,,,,,,,,,,,,2,75,2021-10-30_09h53.40.490,tareaTDv3,2020.2.5,Win32,60,,,right,0.0,7.2024,0.0,85.0,85.0,58.0,1.0,5000.0,0.0,106000.0,152.0,,
,,,,,,,,,,,,,,,,,,,,,,,2,75,2021-10-30_09h53.40.490,tareaTDv3,2020.2.5,Win32,60,,,right,0.0,3.1506,0.0,86.0,86.0,49.0,1.0,5000.0,0.0,149000.0,59.0,,
,,,,,,,,,,,,,,,,,,,,,,,2,75,2021-10-30_09h53.40.490,tareaTDv3,2020.2.5,Win32,60,,,right,1.0,2.169,0.0,87.0,87.0,64.0,1.0,25000.0,0.0,150000.0,4.0,,
,,,,,,,,,,,,,,,,,,,,,,,2,75,2021-10-30_09h53.40.490,tareaTDv3,2020.2.5,Win32,60,,,right,0.0,0.7857,0.0,88.0,88.0,78.0,1.0,25000.0,0.0,125000.0,59.0,,
,,,,,,,,,,,,,,,,,,,,,,,2,75,2021-10-30_09h53.40.490,tareaTDv3,2020.2.5,Win32,60,,,left,1.0,0.3745,0.0,89.0,89.0,60.0,1.0,25000.0,0.0,35000.0,5.0,,
,,,,,,,,,,,,,,,,,,,,,,,2,75,2021-10-30_09h53.40.490,tareaTDv3,2020.2.5,Win32,60,,,,,,,,,,,,,,,left,1.8572
