key1.keys,key1.rt,key2.keys,key2.rt,key2_2.keys,key2_2.rt,key2_3.keys,key2_3.rt,key3.keys,key3.rt,key4.keys,key4.rt,respP.keys,respP.corr,respP.rt,Practice.thisRepN,Practice.thisTrialN,Practice.thisN,Practice.thisIndex,Practice.ran,ssAmount,llAmount,llDelay,session,participant,date,expName,psychopyVersion,OS,frameRate,key5.keys,key5.rt,respT.keys,respT.corr,respT.rt,trials.thisRepN,trials.thisTrialN,trials.thisN,trials.thisIndex,trials.ran,ss_am,ss_del,ll_am,ll_del
space,3.637905,space,7.287115,space,6.8411,space,3.03424,right,2.728455,space,1.855955,right,1.0,6.991835,0.0,0.0,0.0,0.0,1.0,10000.0,109000.0,9.0,2,76,2020-11-13_09h51.53.422,tareaTDv3,2020.2.5,Win32,60,,,,,,,,,,,,,,
,,,,,,,,,,,,left,0.0,3.03422,0.0,1.0,1.0,1.0,1.0,25000.0,35000.0,150.0,2,76,2020-11-13_09h51.53.422,tareaTDv3,2020.2.5,Win32,60,,,,,,,,,,,,,,
,,,,,,,,,,,,right,0.0,10.267215,0.0,2.0,2.0,2.0,1.0,10000.0,19000.0,89.0,2,76,2020-11-13_09h51.53.422,tareaTDv3,2020.2.5,Win32,60,,,,,,,,,,,,,,
,,,,,,,,,,,,,,,,,,,,,,,2,76,2020-11-13_09h51.53.422,tareaTDv3,2020.2.5,Win32,60,g,7.735575,right,1.0,2.617025,0.0,0.0,0.0,59.0,1.0,5000.0,0.0,151000.0,150.0
,,,,,,,,,,,,,,,,,,,,,,,2,76,2020-11-13_09h51.53.422,tareaTDv3,2020.2.5,Win32,60,,,left,1.0,3.42428,0.0,1.0,1.0,47.0,1.0,5000.0,0.0,56000.0,60.0
,,,,,,,,,,,,,,,,,,,,,,,2,76,2020-11-13_09h51.53.422,tareaTDv3,2020.2.5,Win32,60,,,left,1.0,1.885005,0.0,2.0,2.0,74.0,1.0,25000.0,0.0,150000.0,29.0
,,,,,,,,,,,,,,,,,,,,,,,2,76,2020-11-13_09h51.53.422,tareaTDv3,2020.2.5,Win32,60,,,right,0.0,3.08647,0.0,3.0,3.0,50.0,1.0,5000.0,0.0,15000.0,91.0
,,,,,,,,,,,,,,,,,,,,,,,2,76,2020-11-13_09h51.53.422,tareaTDv3,2020.2.5,Win32,60,,,right,0.0,3.94008,0.0,4.0,4.0,52.0,1.0,5000.0,0.0,56000.0,89.0
,,,,,,,,,,,,,,,,,,,,,,,2,76,2020-11-13_09h51.53.422,tareaTDv3,2020.2.5,Win32,60,,,left,1.0,2.640205,0.0,5.0,5.0,7.0,1.0,10000.0,0.0,59000.0,9.0
,,,,,,,,,,,,,,,,,,,,,,,2,76,2020-11-13_09h51.53.422,tareaTDv3,2020.2.5,Win32,60,,,left,1.0,5.595245,0.0,6.0,6.0,29.0,1.0,10000.0,0.0,151000.0,151.0
,,,,,,,,,,,,,,,,,,,,,,,2,76,2020-11-13_09h51.53.422,tareaTDv3,2020.2.5,Win32,60,,,right,1.0,2.089795,0.0,7.0,7.0,18.0,1.0,10000.0,0.0,110000.0,60.0
,,,,,,,,,,,,,,,,,,,,,,,2,76,2020-11-13_09h51.53.422,tareaTDv3,2020.2.5,Win32,60,,,left,1.0,2.033765,0.0,8.0,8.0,24.0,1.0,10000.0,0.0,149000.0,89.0
,,,,,,,,,,,,,,,,,,,,,,,2,76,2020-11-13_09h51.53.422,tareaTDv3,2020.2.5,Win32,60,,,left,1.0,1.689555,0.0,9.0,9.0,40.0,1.0,5000.0,0.0,14000.0,31.0
,,,,,,,,,,,,,,,,,,,,,,,2,76,2020-11-13_09h51.53.422,tareaTDv3,2020.2.5,Win32,60,,,left,1.0,2.668885,0.0,10.0,10.0,67.0,1.0,25000.0,0.0,75000.0,10.0
,,,,,,,,,,,,,,,,,,,,,,,2,76,2020-11-13_09h51.53.422,tareaTDv3,2020.2.5,Win32,60,,,right,1.0,2.17805,0.0,11.0,11.0,63.0,1.0,25000.0,0.0,125000.0,4.0
,,,,,,,,,,,,,,,,,,,,,,,2,76,2020-11-13_09h51.53.422,tareaTDv3,2020.2.5,Win32,60,,,left,1.0,1.843285,0.0,12.0,12.0,17.0,1.0,10000.0,0.0,60000.0,60.0
,,,,,,,,,,,,,,,,,,,,,,,2,76,2020-11-13_09h51.53.422,tareaTDv3,2020.2.5,Win32,60,,,right,1.0,2.255075,0.0,13.0,13.0,49.0,1.0,5000.0,0.0,149000.0,59.0
,,,,,,,,,,,,,,,,,,,,,,,2,76,2020-11-13_09h51.53.422,tareaTDv3,2020.2.5,Win32,60,,,left,1.0,2.134115,0.0,14.0,14.0,36.0,1.0,5000.0,0.0,36000.0,9.0
,,,,,,,,,,,,,,,,,,,,,,,2,76,2020-11-13_09h51.53.422,tareaTDv3,2020.2.5,Win32,60,,,left,0.0,3.44314,0.0,15.0,15.0,28.0,1.0,10000.0,0.0,109000.0,149.0
,,,,,,,,,,,,,,,,,,,,,,,2,76,2020-11-13_09h51.53.422,tareaTDv3,2020.2.5,Win32,60,,,right,0.0,1.989155,0.0,16.0,16.0,21.0,1.0,10000.0,0.0,40000.0,91.0
,,,,,,,,,,,,,,,,,,,,,,,2,76,2020-11-13_09h51.53.422,tareaTDv3,2020.2.5,Win32,60,,,left,1.0,1.991555,0.0,17.0,17.0,30.0,1.0,5000.0,0.0,16000.0,4.0
,,,,,,,,,,,,,,,,,,,,,,,2,76,2020-11-13_09h51.53.422,tareaTDv3,2020.2.5,Win32,60,,,right,1.0,1.384355,0.0,18.0,18.0,13.0,1.0,10000.0,0.0,111000.0,30.0
,,,,,,,,,,,,,,,,,,,,,,,2,76,2020-11-13_09h51.53.422,tareaTDv3,2020.2.5,Win32,60,,,right,1.0,0.88699,0.0,19.0,19.0,34.0,1.0,5000.0,0.0,151000.0,4.0
,,,,,,,,,,,,,,,,,,,,,,,2,76,2020-11-13_09h51.53.422,tareaTDv3,2020.2.5,Win32,60,,,left,1.0,2.01867,0.0,20.0,20.0,61.0,1.0,25000.0,0.0,55000.0,6.0
,,,,,,,,,,,,,,,,,,,,,,,2,76,2020-11-13_09h51.53.422,tareaTDv3,2020.2.5,Win32,60,,,right,0.0,3.70829,0.0,21.0,21.0,71.0,1.0,25000.0,0.0,55000.0,30.0
,,,,,,,,,,,,,,,,,,,,,,,2,76,2020-11-13_09h51.53.422,tareaTDv3,2020.2.5,Win32,60,,,left,0.0,5.572015,0.0,22.0,22.0,80.0,1.0,25000.0,0.0,35000.0,90.0
,,,,,,,,,,,,,,,,,,,,,,,2,76,2020-11-13_09h51.53.422,tareaTDv3,2020.2.5,Win32,60,,,right,1.0,6.366745,0.0,23.0,23.0,82.0,1.0,25000.0,0.0,75000.0,90.0
,,,,,,,,,,,,,,,,,,,,,,,2,76,2020-11-13_09h51.53.422,tareaTDv3,2020.2.5,Win32,60,,,right,1.0,3.106915,0.0,24.0,24.0,0.0,1.0,10000.0,0.0,20000.0,5.0
,,,,,,,,,,,,,,,,,,,,,,,2,76,2020-11-13_09h51.53.422,tareaTDv3,2020.2.5,Win32,60,,,left,1.0,2.200385,0.0,25.0,25.0,69.0,1.0,25000.0,0.0,150000.0,9.0
,,,,,,,,,,,,,,,,,,,,,,,2,76,2020-11-13_09h51.53.422,tareaTDv3,2020.2.5,Win32,60,,,left,1.0,2.18982,0.0,26.0,26.0,43.0,1.0,5000.0,0.0,106000.0,29.0
,,,,,,,,,,,,,,,,,,,,,,,2,76,2020-11-13_09h51.53.422,tareaTDv3,2020.2.5,Win32,60,,,left,1.0,5.99268,0.0,27.0,27.0,73.0,1.0,25000.0,0.0,125000.0,31.0
,,,,,,,,,,,,,,,,,,,,,,,2,76,2020-11-13_09h51.53.422,tareaTDv3,2020.2.5,Win32,60,,,left,1.0,2.420865,0.0,28.0,28.0,51.0,1.0,5000.0,0.0,35000.0,89.0
,,,,,,,,,,,,,,,,,,,,,,,2,76,2020-11-13_09h51.53.422,tareaTDv3,2020.2.5,Win32,60,,,left,0.0,16.036825,0.0,29.0,29.0,84.0,1.0,25000.0,0.0,150000.0,89.0
,,,,,,,,,,,,,,,,,,,,,,,2,76,2020-11-13_09h51.53.422,tareaTDv3,2020.2.5,Win32,60,,,right,0.0,5.292565,0.0,30.0,30.0,81.0,1.0,25000.0,0.0,55000.0,90.0
,,,,,,,,,,,,,,,,,,,,,,,2,76,2020-11-13_09h51.53.422,tareaTDv3,2020.2.5,Win32,60,,,left,0.0,3.27167,0.0,31.0,31.0,35.0,1.0,5000.0,0.0,15000.0,11.0
,,,,,,,,,,,,,,,,,,,,,,,2,76,2020-11-13_09h51.53.422,tareaTDv3,2020.2.5,Win32,60,,,left,0.0,2.124275,0.0,32.0,32.0,76.0,1.0,25000.0,0.0,55000.0,60.0
,,,,,,,,,,,,,,,,,,,,,,,2,76,2020-11-13_09h51.53.422,tareaTDv3,2020.2.5,Win32,60,,,right,0.0,1.18445,0.0,33.0,33.0,11.0,1.0,10000.0,0.0,39000.0,29.0
,,,,,,,,,,,,,,,,,,,,,,,2,76,2020-11-13_09h51.53.422,tareaTDv3,2020.2.5,Win32,60,,,left,1.0,3.945375,0.0,34.0,34.0,37.0,1.0,5000.0,0.0,56000.0,9.0
,,,,,,,,,,,,,,,,,,,,,,,2,76,2020-11-13_09h51.53.422,tareaTDv3,2020.2.5,Win32,60,,,right,1.0,4.585475,0.0,35.0,35.0,44.0,1.0,5000.0,0.0,150000.0,30.0
,,,,,,,,,,,,,,,,,,,,,,,2,76,2020-11-13_09h51.53.422,tareaTDv3,2020.2.5,Win32,60,,,left,0.0,3.92478,0.0,36.0,36.0,55.0,1.0,5000.0,0.0,14000.0,149.0
,,,,,,,,,,,,,,,,,,,,,,,2,76,2020-11-13_09h51.53.422,tareaTDv3,2020.2.5,Win32,60,,,right,1.0,1.90037,0.0,37.0,37.0,38.0,1.0,5000.0,0.0,104000.0,10.0
,,,,,,,,,,,,,,,,,,,,,,,2,76,2020-11-13_09h51.53.422,tareaTDv3,2020.2.5,Win32,60,,,left,1.0,2.78327,0.0,38.0,38.0,78.0,1.0,25000.0,0.0,125000.0,59.0
,,,,,,,,,,,,,,,,,,,,,,,2,76,2020-11-13_09h51.53.422,tareaTDv3,2020.2.5,Win32,60,,,right,1.0,3.37932,0.0,39.0,39.0,88.0,1.0,25000.0,0.0,125000.0,149.0
,,,,,,,,,,,,,,,,,,,,,,,2,76,2020-11-13_09h51.53.422,tareaTDv3,2020.2.5,Win32,60,,,left,0.0,2.501315,0.0,40.0,40.0,41.0,1.0,5000.0,0.0,35000.0,31.0
,,,,,,,,,,,,,,,,,,,,,,,2,76,2020-11-13_09h51.53.422,tareaTDv3,2020.2.5,Win32,60,,,right,0.0,3.151305,0.0,41.0,41.0,56.0,1.0,5000.0,0.0,35000.0,150.0
,,,,,,,,,,,,,,,,,,,,,,,2,76,2020-11-13_09h51.53.422,tareaTDv3,2020.2.5,Win32,60,,,right,0.0,3.72734,0.0,42.0,42.0,85.0,1.0,25000.0,0.0,35000.0,150.0
,,,,,,,,,,,,,,,,,,,,,,,2,76,2020-11-13_09h51.53.422,tareaTDv3,2020.2.5,Win32,60,,,left,1.0,1.720655,0.0,43.0,43.0,53.0,1.0,5000.0,0.0,104000.0,90.0
,,,,,,,,,,,,,,,,,,,,,,,2,76,2020-11-13_09h51.53.422,tareaTDv3,2020.2.5,Win32,60,,,right,1.0,1.326935,0.0,44.0,44.0,2.0,1.0,10000.0,0.0,61000.0,4.0
,,,,,,,,,,,,,,,,,,,,,,,2,76,2020-11-13_09h51.53.422,tareaTDv3,2020.2.5,Win32,60,,,left,0.0,2.094,0.0,45.0,45.0,22.0,1.0,10000.0,0.0,61000.0,89.0
,,,,,,,,,,,,,,,,,,,,,,,2,76,2020-11-13_09h51.53.422,tareaTDv3,2020.2.5,Win32,60,,,right,0.0,1.293045,0.0,46.0,46.0,15.0,1.0,10000.0,0.0,20000.0,59.0
,,,,,,,,,,,,,,,,,,,,,,,2,76,2020-11-13_09h51.53.422,tareaTDv3,2020.2.5,Win32,60,,,right,0.0,1.05794,0.0,47.0,47.0,75.0,1.0,25000.0,0.0,35000.0,60.0
,,,,,,,,,,,,,,,,,,,,,,,2,76,2020-11-13_09h51.53.422,tareaTDv3,2020.2.5,Win32,60,,,left,1.0,2.05832,0.0,48.0,48.0,58.0,1.0,5000.0,0.0,106000.0,152.0
,,,,,,,,,,,,,,,,,,,,,,,2,76,2020-11-13_09h51.53.422,tareaTDv3,2020.2.5,Win32,60,,,right,1.0,3.338565,0.0,49.0,49.0,10.0,1.0,10000.0,0.0,21000.0,31.0
,,,,,,,,,,,,,,,,,,,,,,,2,76,2020-11-13_09h51.53.422,tareaTDv3,2020.2.5,Win32,60,,,right,1.0,5.069995,0.0,50.0,50.0,23.0,1.0,10000.0,0.0,110000.0,90.0
,,,,,,,,,,,,,,,,,,,,,,,2,76,2020-11-13_09h51.53.422,tareaTDv3,2020.2.5,Win32,60,,,left,1.0,1.239535,0.0,51.0,51.0,33.0,1.0,5000.0,0.0,104000.0,5.0
,,,,,,,,,,,,,,,,,,,,,,,2,76,2020-11-13_09h51.53.422,tareaTDv3,2020.2.5,Win32,60,,,left,0.0,2.506255,0.0,52.0,52.0,26.0,1.0,10000.0,0.0,39000.0,150.0
,,,,,,,,,,,,,,,,,,,,,,,2,76,2020-11-13_09h51.53.422,tareaTDv3,2020.2.5,Win32,60,,,right,1.0,1.478275,0.0,53.0,53.0,32.0,1.0,5000.0,0.0,54000.0,5.0
,,,,,,,,,,,,,,,,,,,,,,,2,76,2020-11-13_09h51.53.422,tareaTDv3,2020.2.5,Win32,60,,,right,1.0,3.118195,0.0,54.0,54.0,5.0,1.0,10000.0,0.0,19000.0,11.0
,,,,,,,,,,,,,,,,,,,,,,,2,76,2020-11-13_09h51.53.422,tareaTDv3,2020.2.5,Win32,60,,,left,1.0,2.50685,0.0,55.0,55.0,6.0,1.0,10000.0,0.0,40000.0,10.0
,,,,,,,,,,,,,,,,,,,,,,,2,76,2020-11-13_09h51.53.422,tareaTDv3,2020.2.5,Win32,60,,,right,1.0,2.4769,0.0,56.0,56.0,9.0,1.0,10000.0,0.0,151000.0,11.0
,,,,,,,,,,,,,,,,,,,,,,,2,76,2020-11-13_09h51.53.422,tareaTDv3,2020.2.5,Win32,60,,,right,1.0,4.100155,0.0,57.0,57.0,79.0,1.0,25000.0,0.0,150000.0,61.0
,,,,,,,,,,,,,,,,,,,,,,,2,76,2020-11-13_09h51.53.422,tareaTDv3,2020.2.5,Win32,60,,,left,1.0,2.655645,0.0,58.0,58.0,62.0,1.0,25000.0,0.0,75000.0,5.0
,,,,,,,,,,,,,,,,,,,,,,,2,76,2020-11-13_09h51.53.422,tareaTDv3,2020.2.5,Win32,60,,,right,1.0,4.57939,0.0,59.0,59.0,1.0,1.0,10000.0,0.0,39000.0,6.0
,,,,,,,,,,,,,,,,,,,,,,,2,76,2020-11-13_09h51.53.422,tareaTDv3,2020.2.5,Win32,60,,,left,1.0,3.54465,0.0,60.0,60.0,60.0,1.0,25000.0,0.0,35000.0,5.0
,,,,,,,,,,,,,,,,,,,,,,,2,76,2020-11-13_09h51.53.422,tareaTDv3,2020.2.5,Win32,60,,,right,1.0,1.30563,0.0,61.0,61.0,8.0,1.0,10000.0,0.0,111000.0,10.0
,,,,,,,,,,,,,,,,,,,,,,,2,76,2020-11-13_09h51.53.422,tareaTDv3,2020.2.5,Win32,60,,,right,0.0,3.58452,0.0,62.0,62.0,12.0,1.0,10000.0,0.0,60000.0,29.0
,,,,,,,,,,,,,,,,,,,,,,,2,76,2020-11-13_09h51.53.422,tareaTDv3,2020.2.5,Win32,60,,,left,0.0,1.60107,0.0,63.0,63.0,46.0,1.0,5000.0,0.0,36000.0,61.0
,,,,,,,,,,,,,,,,,,,,,,,2,76,2020-11-13_09h51.53.422,tareaTDv3,2020.2.5,Win32,60,,,left,1.0,2.44397,0.0,64.0,64.0,66.0,1.0,25000.0,0.0,55000.0,11.0
,,,,,,,,,,,,,,,,,,,,,,,2,76,2020-11-13_09h51.53.422,tareaTDv3,2020.2.5,Win32,60,,,left,1.0,1.634895,0.0,65.0,65.0,65.0,1.0,25000.0,0.0,35000.0,11.0
,,,,,,,,,,,,,,,,,,,,,,,2,76,2020-11-13_09h51.53.422,tareaTDv3,2020.2.5,Win32,60,,,right,0.0,1.37231,0.0,66.0,66.0,87.0,1.0,25000.0,0.0,75000.0,151.0
,,,,,,,,,,,,,,,,,,,,,,,2,76,2020-11-13_09h51.53.422,tareaTDv3,2020.2.5,Win32,60,,,left,1.0,1.40806,0.0,67.0,67.0,64.0,1.0,25000.0,0.0,150000.0,4.0
,,,,,,,,,,,,,,,,,,,,,,,2,76,2020-11-13_09h51.53.422,tareaTDv3,2020.2.5,Win32,60,,,right,1.0,2.62563,0.0,68.0,68.0,45.0,1.0,5000.0,0.0,15000.0,61.0
,,,,,,,,,,,,,,,,,,,,,,,2,76,2020-11-13_09h51.53.422,tareaTDv3,2020.2.5,Win32,60,,,left,1.0,3.15775,0.0,69.0,69.0,14.0,1.0,10000.0,0.0,150000.0,30.0
,,,,,,,,,,,,,,,,,,,,,,,2,76,2020-11-13_09h51.53.422,tareaTDv3,2020.2.5,Win32,60,,,right,0.0,0.728325,0.0,70.0,70.0,89.0,1.0,25000.0,0.0,150000.0,150.0
,,,,,,,,,,,,,,,,,,,,,,,2,76,2020-11-13_09h51.53.422,tareaTDv3,2020.2.5,Win32,60,,,right,1.0,1.49058,0.0,71.0,71.0,68.0,1.0,25000.0,0.0,125000.0,9.0
,,,,,,,,,,,,,,,,,,,,,,,2,76,2020-11-13_09h51.53.422,tareaTDv3,2020.2.5,Win32,60,,,left,0.0,1.167425,0.0,72.0,72.0,57.0,1.0,5000.0,0.0,55000.0,151.0
,,,,,,,,,,,,,,,,,,,,,,,2,76,2020-11-13_09h51.53.422,tareaTDv3,2020.2.5,Win32,60,,,right,0.0,1.626945,0.0,73.0,73.0,20.0,1.0,10000.0,0.0,20000.0,90.0
,,,,,,,,,,,,,,,,,,,,,,,2,76,2020-11-13_09h51.53.422,tareaTDv3,2020.2.5,Win32,60,,,left,1.0,2.675455,0.0,74.0,74.0,42.0,1.0,5000.0,0.0,56000.0,29.0
,,,,,,,,,,,,,,,,,,,,,,,2,76,2020-11-13_09h51.53.422,tareaTDv3,2020.2.5,Win32,60,,,left,0.0,3.318335,0.0,75.0,75.0,86.0,1.0,25000.0,0.0,55000.0,151.0
,,,,,,,,,,,,,,,,,,,,,,,2,76,2020-11-13_09h51.53.422,tareaTDv3,2020.2.5,Win32,60,,,right,0.0,0.97546,0.0,76.0,76.0,48.0,1.0,5000.0,0.0,105000.0,60.0
,,,,,,,,,,,,,,,,,,,,,,,2,76,2020-11-13_09h51.53.422,tareaTDv3,2020.2.5,Win32,60,,,right,1.0,1.33707,0.0,77.0,77.0,54.0,1.0,5000.0,0.0,150000.0,90.0
,,,,,,,,,,,,,,,,,,,,,,,2,76,2020-11-13_09h51.53.422,tareaTDv3,2020.2.5,Win32,60,,,right,0.0,0.734375,0.0,78.0,78.0,83.0,1.0,25000.0,0.0,125000.0,89.0
,,,,,,,,,,,,,,,,,,,,,,,2,76,2020-11-13_09h51.53.422,tareaTDv3,2020.2.5,Win32,60,,,right,1.0,1.157445,0.0,79.0,79.0,16.0,1.0,10000.0,0.0,39000.0,59.0
,,,,,,,,,,,,,,,,,,,,,,,2,76,2020-11-13_09h51.53.422,tareaTDv3,2020.2.5,Win32,60,,,left,0.0,1.0575,0.0,80.0,80.0,72.0,1.0,25000.0,0.0,75000.0,31.0
,,,,,,,,,,,,,,,,,,,,,,,2,76,2020-11-13_09h51.53.422,tareaTDv3,2020.2.5,Win32,60,,,left,1.0,2.759225,0.0,81.0,81.0,39.0,1.0,5000.0,0.0,149000.0,10.0
,,,,,,,,,,,,,,,,,,,,,,,2,76,2020-11-13_09h51.53.422,tareaTDv3,2020.2.5,Win32,60,,,right,1.0,0.707825,0.0,82.0,82.0,3.0,1.0,10000.0,0.0,109000.0,5.0
,,,,,,,,,,,,,,,,,,,,,,,2,76,2020-11-13_09h51.53.422,tareaTDv3,2020.2.5,Win32,60,,,left,0.0,1.633785,0.0,83.0,83.0,70.0,1.0,25000.0,0.0,35000.0,30.0
,,,,,,,,,,,,,,,,,,,,,,,2,76,2020-11-13_09h51.53.422,tareaTDv3,2020.2.5,Win32,60,,,right,1.0,1.152025,0.0,84.0,84.0,4.0,1.0,10000.0,0.0,150000.0,5.0
,,,,,,,,,,,,,,,,,,,,,,,2,76,2020-11-13_09h51.53.422,tareaTDv3,2020.2.5,Win32,60,,,right,0.0,2.004245,0.0,85.0,85.0,27.0,1.0,10000.0,0.0,61000.0,150.0
,,,,,,,,,,,,,,,,,,,,,,,2,76,2020-11-13_09h51.53.422,tareaTDv3,2020.2.5,Win32,60,,,left,0.0,1.09048,0.0,86.0,86.0,77.0,1.0,25000.0,0.0,75000.0,59.0
,,,,,,,,,,,,,,,,,,,,,,,2,76,2020-11-13_09h51.53.422,tareaTDv3,2020.2.5,Win32,60,,,left,0.0,3.533575,0.0,87.0,87.0,19.0,1.0,10000.0,0.0,149000.0,61.0
,,,,,,,,,,,,,,,,,,,,,,,2,76,2020-11-13_09h51.53.422,tareaTDv3,2020.2.5,Win32,60,,,left,1.0,2.551515,0.0,88.0,88.0,31.0,1.0,5000.0,0.0,35000.0,6.0
,,,,,,,,,,,,,,,,,,,,,,,2,76,2020-11-13_09h51.53.422,tareaTDv3,2020.2.5,Win32,60,,,left,0.0,5.75116,0.0,89.0,89.0,25.0,1.0,10000.0,0.0,10000.0,150.0
