key1.keys,key1.rt,key2.keys,key2.rt,key2_2.keys,key2_2.rt,key2_3.keys,key2_3.rt,key3.keys,key3.rt,key4.keys,key4.rt,respP.keys,respP.corr,Practice.thisRepN,Practice.thisTrialN,Practice.thisN,Practice.thisIndex,Practice.ran,ssAmount,llAmount,llDelay,session,participant,date,expName,psychopyVersion,OS,frameRate,respP.rt,key5.keys,key5.rt,respT.keys,respT.corr,respT.rt,trials.thisRepN,trials.thisTrialN,trials.thisN,trials.thisIndex,trials.ran,ss_am,ss_del,ll_am,ll_del
space,15.44742,space,8.97293,space,1.570495,space,12.041385,space,14.952825,space,4.853585,,0.0,0.0,0.0,0.0,2.0,1.0,10000.0,19000.0,89.0,2,87,2020-11-13_09h50.26.907,tareaTDv3,2020.2.5,Win32,60,,,,,,,,,,,,,,,
,,,,,,,,,,,,left,0.0,0.0,1.0,1.0,0.0,1.0,10000.0,109000.0,9.0,2,87,2020-11-13_09h50.26.907,tareaTDv3,2020.2.5,Win32,60,6.703915,,,,,,,,,,,,,,
,,,,,,,,,,,,right,0.0,0.0,2.0,2.0,1.0,1.0,25000.0,35000.0,150.0,2,87,2020-11-13_09h50.26.907,tareaTDv3,2020.2.5,Win32,60,10.21445,,,,,,,,,,,,,,
,,,,,,,,,,,,,,,,,,,,,,2,87,2020-11-13_09h50.26.907,tareaTDv3,2020.2.5,Win32,60,,g,27.675075,left,1.0,9.524455,0.0,0.0,0.0,28.0,1.0,10000.0,0.0,109000.0,149.0
,,,,,,,,,,,,,,,,,,,,,,2,87,2020-11-13_09h50.26.907,tareaTDv3,2020.2.5,Win32,60,,,,left,1.0,8.514585,0.0,1.0,1.0,87.0,1.0,25000.0,0.0,75000.0,151.0
,,,,,,,,,,,,,,,,,,,,,,2,87,2020-11-13_09h50.26.907,tareaTDv3,2020.2.5,Win32,60,,,,right,1.0,5.56948,0.0,2.0,2.0,34.0,1.0,5000.0,0.0,151000.0,4.0
,,,,,,,,,,,,,,,,,,,,,,2,87,2020-11-13_09h50.26.907,tareaTDv3,2020.2.5,Win32,60,,,,right,1.0,3.904595,0.0,3.0,3.0,48.0,1.0,5000.0,0.0,105000.0,60.0
,,,,,,,,,,,,,,,,,,,,,,2,87,2020-11-13_09h50.26.907,tareaTDv3,2020.2.5,Win32,60,,,,left,1.0,5.14598,0.0,4.0,4.0,57.0,1.0,5000.0,0.0,55000.0,151.0
,,,,,,,,,,,,,,,,,,,,,,2,87,2020-11-13_09h50.26.907,tareaTDv3,2020.2.5,Win32,60,,,,right,1.0,4.085135,0.0,5.0,5.0,81.0,1.0,25000.0,0.0,55000.0,90.0
,,,,,,,,,,,,,,,,,,,,,,2,87,2020-11-13_09h50.26.907,tareaTDv3,2020.2.5,Win32,60,,,,right,1.0,1.95017,0.0,6.0,6.0,82.0,1.0,25000.0,0.0,75000.0,90.0
,,,,,,,,,,,,,,,,,,,,,,2,87,2020-11-13_09h50.26.907,tareaTDv3,2020.2.5,Win32,60,,,,left,1.0,2.23195,0.0,7.0,7.0,76.0,1.0,25000.0,0.0,55000.0,60.0
,,,,,,,,,,,,,,,,,,,,,,2,87,2020-11-13_09h50.26.907,tareaTDv3,2020.2.5,Win32,60,,,,left,1.0,4.834655,0.0,8.0,8.0,33.0,1.0,5000.0,0.0,104000.0,5.0
,,,,,,,,,,,,,,,,,,,,,,2,87,2020-11-13_09h50.26.907,tareaTDv3,2020.2.5,Win32,60,,,,left,1.0,2.60062,0.0,9.0,9.0,74.0,1.0,25000.0,0.0,150000.0,29.0
,,,,,,,,,,,,,,,,,,,,,,2,87,2020-11-13_09h50.26.907,tareaTDv3,2020.2.5,Win32,60,,,,right,0.0,3.942675,0.0,10.0,10.0,21.0,1.0,10000.0,0.0,40000.0,91.0
,,,,,,,,,,,,,,,,,,,,,,2,87,2020-11-13_09h50.26.907,tareaTDv3,2020.2.5,Win32,60,,,,right,0.0,5.347055,0.0,11.0,11.0,75.0,1.0,25000.0,0.0,35000.0,60.0
,,,,,,,,,,,,,,,,,,,,,,2,87,2020-11-13_09h50.26.907,tareaTDv3,2020.2.5,Win32,60,,,,right,1.0,3.024695,0.0,12.0,12.0,83.0,1.0,25000.0,0.0,125000.0,89.0
,,,,,,,,,,,,,,,,,,,,,,2,87,2020-11-13_09h50.26.907,tareaTDv3,2020.2.5,Win32,60,,,,left,1.0,3.84785,0.0,13.0,13.0,12.0,1.0,10000.0,0.0,60000.0,29.0
,,,,,,,,,,,,,,,,,,,,,,2,87,2020-11-13_09h50.26.907,tareaTDv3,2020.2.5,Win32,60,,,,left,1.0,5.04542,0.0,14.0,14.0,5.0,1.0,10000.0,0.0,19000.0,11.0
,,,,,,,,,,,,,,,,,,,,,,2,87,2020-11-13_09h50.26.907,tareaTDv3,2020.2.5,Win32,60,,,,right,1.0,2.55435,0.0,15.0,15.0,23.0,1.0,10000.0,0.0,110000.0,90.0
,,,,,,,,,,,,,,,,,,,,,,2,87,2020-11-13_09h50.26.907,tareaTDv3,2020.2.5,Win32,60,,,,left,0.0,4.008995,0.0,16.0,16.0,10.0,1.0,10000.0,0.0,21000.0,31.0
,,,,,,,,,,,,,,,,,,,,,,2,87,2020-11-13_09h50.26.907,tareaTDv3,2020.2.5,Win32,60,,,,right,1.0,3.01566,0.0,17.0,17.0,30.0,1.0,5000.0,0.0,16000.0,4.0
,,,,,,,,,,,,,,,,,,,,,,2,87,2020-11-13_09h50.26.907,tareaTDv3,2020.2.5,Win32,60,,,,left,1.0,3.282615,0.0,18.0,18.0,42.0,1.0,5000.0,0.0,56000.0,29.0
,,,,,,,,,,,,,,,,,,,,,,2,87,2020-11-13_09h50.26.907,tareaTDv3,2020.2.5,Win32,60,,,,right,1.0,6.29085,0.0,19.0,19.0,78.0,1.0,25000.0,0.0,125000.0,59.0
,,,,,,,,,,,,,,,,,,,,,,2,87,2020-11-13_09h50.26.907,tareaTDv3,2020.2.5,Win32,60,,,,left,0.0,6.374515,0.0,20.0,20.0,20.0,1.0,10000.0,0.0,20000.0,90.0
,,,,,,,,,,,,,,,,,,,,,,2,87,2020-11-13_09h50.26.907,tareaTDv3,2020.2.5,Win32,60,,,,right,1.0,5.378775,0.0,21.0,21.0,13.0,1.0,10000.0,0.0,111000.0,30.0
,,,,,,,,,,,,,,,,,,,,,,2,87,2020-11-13_09h50.26.907,tareaTDv3,2020.2.5,Win32,60,,,,left,0.0,5.012855,0.0,22.0,22.0,26.0,1.0,10000.0,0.0,39000.0,150.0
,,,,,,,,,,,,,,,,,,,,,,2,87,2020-11-13_09h50.26.907,tareaTDv3,2020.2.5,Win32,60,,,,left,1.0,2.394095,0.0,23.0,23.0,9.0,1.0,10000.0,0.0,151000.0,11.0
,,,,,,,,,,,,,,,,,,,,,,2,87,2020-11-13_09h50.26.907,tareaTDv3,2020.2.5,Win32,60,,,,left,1.0,2.23545,0.0,24.0,24.0,0.0,1.0,10000.0,0.0,20000.0,5.0
,,,,,,,,,,,,,,,,,,,,,,2,87,2020-11-13_09h50.26.907,tareaTDv3,2020.2.5,Win32,60,,,,right,1.0,2.915575,0.0,25.0,25.0,64.0,1.0,25000.0,0.0,150000.0,4.0
,,,,,,,,,,,,,,,,,,,,,,2,87,2020-11-13_09h50.26.907,tareaTDv3,2020.2.5,Win32,60,,,,right,1.0,3.968125,0.0,26.0,26.0,37.0,1.0,5000.0,0.0,56000.0,9.0
,,,,,,,,,,,,,,,,,,,,,,2,87,2020-11-13_09h50.26.907,tareaTDv3,2020.2.5,Win32,60,,,,right,1.0,2.35353,0.0,27.0,27.0,68.0,1.0,25000.0,0.0,125000.0,9.0
,,,,,,,,,,,,,,,,,,,,,,2,87,2020-11-13_09h50.26.907,tareaTDv3,2020.2.5,Win32,60,,,,left,1.0,5.994335,0.0,28.0,28.0,71.0,1.0,25000.0,0.0,55000.0,30.0
,,,,,,,,,,,,,,,,,,,,,,2,87,2020-11-13_09h50.26.907,tareaTDv3,2020.2.5,Win32,60,,,,left,1.0,3.32047,0.0,29.0,29.0,14.0,1.0,10000.0,0.0,150000.0,30.0
,,,,,,,,,,,,,,,,,,,,,,2,87,2020-11-13_09h50.26.907,tareaTDv3,2020.2.5,Win32,60,,,,right,0.0,2.647235,0.0,30.0,30.0,55.0,1.0,5000.0,0.0,14000.0,149.0
,,,,,,,,,,,,,,,,,,,,,,2,87,2020-11-13_09h50.26.907,tareaTDv3,2020.2.5,Win32,60,,,,right,0.0,2.36478,0.0,31.0,31.0,86.0,1.0,25000.0,0.0,55000.0,151.0
,,,,,,,,,,,,,,,,,,,,,,2,87,2020-11-13_09h50.26.907,tareaTDv3,2020.2.5,Win32,60,,,,right,1.0,3.535305,0.0,32.0,32.0,54.0,1.0,5000.0,0.0,150000.0,90.0
,,,,,,,,,,,,,,,,,,,,,,2,87,2020-11-13_09h50.26.907,tareaTDv3,2020.2.5,Win32,60,,,,right,0.0,2.04914,0.0,33.0,33.0,27.0,1.0,10000.0,0.0,61000.0,150.0
,,,,,,,,,,,,,,,,,,,,,,2,87,2020-11-13_09h50.26.907,tareaTDv3,2020.2.5,Win32,60,,,,right,1.0,1.955405,0.0,34.0,34.0,63.0,1.0,25000.0,0.0,125000.0,4.0
,,,,,,,,,,,,,,,,,,,,,,2,87,2020-11-13_09h50.26.907,tareaTDv3,2020.2.5,Win32,60,,,,right,1.0,2.23203,0.0,35.0,35.0,66.0,1.0,25000.0,0.0,55000.0,11.0
,,,,,,,,,,,,,,,,,,,,,,2,87,2020-11-13_09h50.26.907,tareaTDv3,2020.2.5,Win32,60,,,,left,0.0,2.5579,0.0,36.0,36.0,85.0,1.0,25000.0,0.0,35000.0,150.0
,,,,,,,,,,,,,,,,,,,,,,2,87,2020-11-13_09h50.26.907,tareaTDv3,2020.2.5,Win32,60,,,,right,1.0,3.38716,0.0,37.0,37.0,59.0,1.0,5000.0,0.0,151000.0,150.0
,,,,,,,,,,,,,,,,,,,,,,2,87,2020-11-13_09h50.26.907,tareaTDv3,2020.2.5,Win32,60,,,,left,0.0,6.547595,0.0,38.0,38.0,45.0,1.0,5000.0,0.0,15000.0,61.0
,,,,,,,,,,,,,,,,,,,,,,2,87,2020-11-13_09h50.26.907,tareaTDv3,2020.2.5,Win32,60,,,,right,1.0,2.49755,0.0,39.0,39.0,1.0,1.0,10000.0,0.0,39000.0,6.0
,,,,,,,,,,,,,,,,,,,,,,2,87,2020-11-13_09h50.26.907,tareaTDv3,2020.2.5,Win32,60,,,,right,1.0,2.566415,0.0,40.0,40.0,61.0,1.0,25000.0,0.0,55000.0,6.0
,,,,,,,,,,,,,,,,,,,,,,2,87,2020-11-13_09h50.26.907,tareaTDv3,2020.2.5,Win32,60,,,,right,1.0,4.910835,0.0,41.0,41.0,52.0,1.0,5000.0,0.0,56000.0,89.0
,,,,,,,,,,,,,,,,,,,,,,2,87,2020-11-13_09h50.26.907,tareaTDv3,2020.2.5,Win32,60,,,,right,0.0,1.343095,0.0,42.0,42.0,56.0,1.0,5000.0,0.0,35000.0,150.0
,,,,,,,,,,,,,,,,,,,,,,2,87,2020-11-13_09h50.26.907,tareaTDv3,2020.2.5,Win32,60,,,,right,1.0,3.007705,0.0,43.0,43.0,53.0,1.0,5000.0,0.0,104000.0,90.0
,,,,,,,,,,,,,,,,,,,,,,2,87,2020-11-13_09h50.26.907,tareaTDv3,2020.2.5,Win32,60,,,,left,1.0,2.354705,0.0,44.0,44.0,4.0,1.0,10000.0,0.0,150000.0,5.0
,,,,,,,,,,,,,,,,,,,,,,2,87,2020-11-13_09h50.26.907,tareaTDv3,2020.2.5,Win32,60,,,,right,1.0,1.599445,0.0,45.0,45.0,43.0,1.0,5000.0,0.0,106000.0,29.0
,,,,,,,,,,,,,,,,,,,,,,2,87,2020-11-13_09h50.26.907,tareaTDv3,2020.2.5,Win32,60,,,,right,1.0,1.72861,0.0,46.0,46.0,47.0,1.0,5000.0,0.0,56000.0,60.0
,,,,,,,,,,,,,,,,,,,,,,2,87,2020-11-13_09h50.26.907,tareaTDv3,2020.2.5,Win32,60,,,,left,1.0,5.209715,0.0,47.0,47.0,72.0,1.0,25000.0,0.0,75000.0,31.0
,,,,,,,,,,,,,,,,,,,,,,2,87,2020-11-13_09h50.26.907,tareaTDv3,2020.2.5,Win32,60,,,,right,1.0,2.09832,0.0,48.0,48.0,18.0,1.0,10000.0,0.0,110000.0,60.0
,,,,,,,,,,,,,,,,,,,,,,2,87,2020-11-13_09h50.26.907,tareaTDv3,2020.2.5,Win32,60,,,,left,1.0,4.925425,0.0,49.0,49.0,65.0,1.0,25000.0,0.0,35000.0,11.0
,,,,,,,,,,,,,,,,,,,,,,2,87,2020-11-13_09h50.26.907,tareaTDv3,2020.2.5,Win32,60,,,,right,0.0,1.89915,0.0,50.0,50.0,15.0,1.0,10000.0,0.0,20000.0,59.0
,,,,,,,,,,,,,,,,,,,,,,2,87,2020-11-13_09h50.26.907,tareaTDv3,2020.2.5,Win32,60,,,,left,1.0,4.15783,0.0,51.0,51.0,24.0,1.0,10000.0,0.0,149000.0,89.0
,,,,,,,,,,,,,,,,,,,,,,2,87,2020-11-13_09h50.26.907,tareaTDv3,2020.2.5,Win32,60,,,,left,1.0,3.140585,0.0,52.0,52.0,17.0,1.0,10000.0,0.0,60000.0,60.0
,,,,,,,,,,,,,,,,,,,,,,2,87,2020-11-13_09h50.26.907,tareaTDv3,2020.2.5,Win32,60,,,,right,1.0,3.65135,0.0,53.0,53.0,2.0,1.0,10000.0,0.0,61000.0,4.0
,,,,,,,,,,,,,,,,,,,,,,2,87,2020-11-13_09h50.26.907,tareaTDv3,2020.2.5,Win32,60,,,,left,1.0,5.47885,0.0,54.0,54.0,41.0,1.0,5000.0,0.0,35000.0,31.0
,,,,,,,,,,,,,,,,,,,,,,2,87,2020-11-13_09h50.26.907,tareaTDv3,2020.2.5,Win32,60,,,,left,1.0,6.253435,0.0,55.0,55.0,62.0,1.0,25000.0,0.0,75000.0,5.0
,,,,,,,,,,,,,,,,,,,,,,2,87,2020-11-13_09h50.26.907,tareaTDv3,2020.2.5,Win32,60,,,,left,1.0,3.54963,0.0,56.0,56.0,38.0,1.0,5000.0,0.0,104000.0,10.0
,,,,,,,,,,,,,,,,,,,,,,2,87,2020-11-13_09h50.26.907,tareaTDv3,2020.2.5,Win32,60,,,,left,1.0,4.00506,0.0,57.0,57.0,31.0,1.0,5000.0,0.0,35000.0,6.0
,,,,,,,,,,,,,,,,,,,,,,2,87,2020-11-13_09h50.26.907,tareaTDv3,2020.2.5,Win32,60,,,,right,1.0,6.593375,0.0,58.0,58.0,79.0,1.0,25000.0,0.0,150000.0,61.0
,,,,,,,,,,,,,,,,,,,,,,2,87,2020-11-13_09h50.26.907,tareaTDv3,2020.2.5,Win32,60,,,,left,1.0,2.82298,0.0,59.0,59.0,70.0,1.0,25000.0,0.0,35000.0,30.0
,,,,,,,,,,,,,,,,,,,,,,2,87,2020-11-13_09h50.26.907,tareaTDv3,2020.2.5,Win32,60,,,,left,1.0,1.61575,0.0,60.0,60.0,3.0,1.0,10000.0,0.0,109000.0,5.0
,,,,,,,,,,,,,,,,,,,,,,2,87,2020-11-13_09h50.26.907,tareaTDv3,2020.2.5,Win32,60,,,,right,1.0,5.76236,0.0,61.0,61.0,29.0,1.0,10000.0,0.0,151000.0,151.0
,,,,,,,,,,,,,,,,,,,,,,2,87,2020-11-13_09h50.26.907,tareaTDv3,2020.2.5,Win32,60,,,,right,1.0,2.48136,0.0,62.0,62.0,69.0,1.0,25000.0,0.0,150000.0,9.0
,,,,,,,,,,,,,,,,,,,,,,2,87,2020-11-13_09h50.26.907,tareaTDv3,2020.2.5,Win32,60,,,,left,1.0,5.09578,0.0,63.0,63.0,77.0,1.0,25000.0,0.0,75000.0,59.0
,,,,,,,,,,,,,,,,,,,,,,2,87,2020-11-13_09h50.26.907,tareaTDv3,2020.2.5,Win32,60,,,,right,1.0,1.67779,0.0,64.0,64.0,44.0,1.0,5000.0,0.0,150000.0,30.0
,,,,,,,,,,,,,,,,,,,,,,2,87,2020-11-13_09h50.26.907,tareaTDv3,2020.2.5,Win32,60,,,,left,1.0,5.462275,0.0,65.0,65.0,73.0,1.0,25000.0,0.0,125000.0,31.0
,,,,,,,,,,,,,,,,,,,,,,2,87,2020-11-13_09h50.26.907,tareaTDv3,2020.2.5,Win32,60,,,,right,0.0,2.143515,0.0,66.0,66.0,50.0,1.0,5000.0,0.0,15000.0,91.0
,,,,,,,,,,,,,,,,,,,,,,2,87,2020-11-13_09h50.26.907,tareaTDv3,2020.2.5,Win32,60,,,,left,1.0,2.82631,0.0,67.0,67.0,67.0,1.0,25000.0,0.0,75000.0,10.0
,,,,,,,,,,,,,,,,,,,,,,2,87,2020-11-13_09h50.26.907,tareaTDv3,2020.2.5,Win32,60,,,,left,1.0,3.90176,0.0,68.0,68.0,58.0,1.0,5000.0,0.0,106000.0,152.0
,,,,,,,,,,,,,,,,,,,,,,2,87,2020-11-13_09h50.26.907,tareaTDv3,2020.2.5,Win32,60,,,,right,1.0,2.348315,0.0,69.0,69.0,49.0,1.0,5000.0,0.0,149000.0,59.0
,,,,,,,,,,,,,,,,,,,,,,2,87,2020-11-13_09h50.26.907,tareaTDv3,2020.2.5,Win32,60,,,,left,1.0,3.921495,0.0,70.0,70.0,89.0,1.0,25000.0,0.0,150000.0,150.0
,,,,,,,,,,,,,,,,,,,,,,2,87,2020-11-13_09h50.26.907,tareaTDv3,2020.2.5,Win32,60,,,,right,1.0,3.548305,0.0,71.0,71.0,46.0,1.0,5000.0,0.0,36000.0,61.0
,,,,,,,,,,,,,,,,,,,,,,2,87,2020-11-13_09h50.26.907,tareaTDv3,2020.2.5,Win32,60,,,,left,1.0,1.66959,0.0,72.0,72.0,19.0,1.0,10000.0,0.0,149000.0,61.0
,,,,,,,,,,,,,,,,,,,,,,2,87,2020-11-13_09h50.26.907,tareaTDv3,2020.2.5,Win32,60,,,,left,1.0,2.094985,0.0,73.0,73.0,22.0,1.0,10000.0,0.0,61000.0,89.0
,,,,,,,,,,,,,,,,,,,,,,2,87,2020-11-13_09h50.26.907,tareaTDv3,2020.2.5,Win32,60,,,,left,1.0,1.15458,0.0,74.0,74.0,32.0,1.0,5000.0,0.0,54000.0,5.0
,,,,,,,,,,,,,,,,,,,,,,2,87,2020-11-13_09h50.26.907,tareaTDv3,2020.2.5,Win32,60,,,,right,1.0,1.137565,0.0,75.0,75.0,7.0,1.0,10000.0,0.0,59000.0,9.0
,,,,,,,,,,,,,,,,,,,,,,2,87,2020-11-13_09h50.26.907,tareaTDv3,2020.2.5,Win32,60,,,,left,1.0,4.196665,0.0,76.0,76.0,35.0,1.0,5000.0,0.0,15000.0,11.0
,,,,,,,,,,,,,,,,,,,,,,2,87,2020-11-13_09h50.26.907,tareaTDv3,2020.2.5,Win32,60,,,,left,0.0,2.449475,0.0,77.0,77.0,51.0,1.0,5000.0,0.0,35000.0,89.0
,,,,,,,,,,,,,,,,,,,,,,2,87,2020-11-13_09h50.26.907,tareaTDv3,2020.2.5,Win32,60,,,,left,1.0,0.516585,0.0,78.0,78.0,39.0,1.0,5000.0,0.0,149000.0,10.0
,,,,,,,,,,,,,,,,,,,,,,2,87,2020-11-13_09h50.26.907,tareaTDv3,2020.2.5,Win32,60,,,,right,1.0,7.88674,0.0,79.0,79.0,88.0,1.0,25000.0,0.0,125000.0,149.0
,,,,,,,,,,,,,,,,,,,,,,2,87,2020-11-13_09h50.26.907,tareaTDv3,2020.2.5,Win32,60,,,,right,1.0,2.23229,0.0,80.0,80.0,11.0,1.0,10000.0,0.0,39000.0,29.0
,,,,,,,,,,,,,,,,,,,,,,2,87,2020-11-13_09h50.26.907,tareaTDv3,2020.2.5,Win32,60,,,,right,1.0,0.82709,0.0,81.0,81.0,36.0,1.0,5000.0,0.0,36000.0,9.0
,,,,,,,,,,,,,,,,,,,,,,2,87,2020-11-13_09h50.26.907,tareaTDv3,2020.2.5,Win32,60,,,,left,0.0,3.138415,0.0,82.0,82.0,80.0,1.0,25000.0,0.0,35000.0,90.0
,,,,,,,,,,,,,,,,,,,,,,2,87,2020-11-13_09h50.26.907,tareaTDv3,2020.2.5,Win32,60,,,,left,1.0,1.73638,0.0,83.0,83.0,60.0,1.0,25000.0,0.0,35000.0,5.0
,,,,,,,,,,,,,,,,,,,,,,2,87,2020-11-13_09h50.26.907,tareaTDv3,2020.2.5,Win32,60,,,,left,1.0,1.840525,0.0,84.0,84.0,6.0,1.0,10000.0,0.0,40000.0,10.0
,,,,,,,,,,,,,,,,,,,,,,2,87,2020-11-13_09h50.26.907,tareaTDv3,2020.2.5,Win32,60,,,,left,1.0,2.134035,0.0,85.0,85.0,84.0,1.0,25000.0,0.0,150000.0,89.0
,,,,,,,,,,,,,,,,,,,,,,2,87,2020-11-13_09h50.26.907,tareaTDv3,2020.2.5,Win32,60,,,,right,0.0,1.258275,0.0,86.0,86.0,16.0,1.0,10000.0,0.0,39000.0,59.0
,,,,,,,,,,,,,,,,,,,,,,2,87,2020-11-13_09h50.26.907,tareaTDv3,2020.2.5,Win32,60,,,,right,1.0,1.975995,0.0,87.0,87.0,8.0,1.0,10000.0,0.0,111000.0,10.0
,,,,,,,,,,,,,,,,,,,,,,2,87,2020-11-13_09h50.26.907,tareaTDv3,2020.2.5,Win32,60,,,,left,0.0,1.816935,0.0,88.0,88.0,40.0,1.0,5000.0,0.0,14000.0,31.0
,,,,,,,,,,,,,,,,,,,,,,2,87,2020-11-13_09h50.26.907,tareaTDv3,2020.2.5,Win32,60,,,,left,0.0,4.88589,0.0,89.0,89.0,25.0,1.0,10000.0,0.0,10000.0,150.0
