key1.keys,key1.rt,key2.keys,key2.rt,key2_2.keys,key2_2.rt,key2_3.keys,key2_3.rt,key3.keys,key3.rt,key4.keys,key4.rt,respP.keys,respP.corr,respP.rt,Practice.thisRepN,Practice.thisTrialN,Practice.thisN,Practice.thisIndex,Practice.ran,ssAmount,llAmount,llDelay,session,participant,date,expName,psychopyVersion,OS,frameRate,key5.keys,key5.rt,respT.keys,respT.corr,respT.rt,trials.thisRepN,trials.thisTrialN,trials.thisN,trials.thisIndex,trials.ran,ss_am,ss_del,ll_am,ll_del
space,3.337,space,13.3581,space,6.7329,space,3.907299999,right,4.6083,space,2.3225,left,1,4.6786,0,0,0,1,1,25000,35000,150,3,93,2022-05-04_08h06.20.983,tareaTDv3,2020.2.5,Win32,60,,,,,,,,,,,,,,
,,,,,,,,,,,,left,1,3.0521,0,1,1,2,1,10000,19000,89,3,93,2022-05-04_08h06.20.983,tareaTDv3,2020.2.5,Win32,60,,,,,,,,,,,,,,
,,,,,,,,,,,,left,1,2.409900001,0,2,2,0,1,10000,109000,9,3,93,2022-05-04_08h06.20.983,tareaTDv3,2020.2.5,Win32,60,,,,,,,,,,,,,,
,,,,,,,,,,,,,,,,,,,,,,,3,93,2022-05-04_08h06.20.983,tareaTDv3,2020.2.5,Win32,60,g,4.6484,left,1,2.994400001,0,0,0,86,1,25000,0,55000,151
,,,,,,,,,,,,,,,,,,,,,,,3,93,2022-05-04_08h06.20.983,tareaTDv3,2020.2.5,Win32,60,,,right,1,2.3689,0,1,1,8,1,10000,0,111000,10
,,,,,,,,,,,,,,,,,,,,,,,3,93,2022-05-04_08h06.20.983,tareaTDv3,2020.2.5,Win32,60,,,left,1,1.2876,0,2,2,81,1,25000,0,55000,90
,,,,,,,,,,,,,,,,,,,,,,,3,93,2022-05-04_08h06.20.983,tareaTDv3,2020.2.5,Win32,60,,,left,1,2.627299999,0,3,3,2,1,10000,0,61000,4
,,,,,,,,,,,,,,,,,,,,,,,3,93,2022-05-04_08h06.20.983,tareaTDv3,2020.2.5,Win32,60,,,left,1,2.0257,0,4,4,14,1,10000,0,150000,30
,,,,,,,,,,,,,,,,,,,,,,,3,93,2022-05-04_08h06.20.983,tareaTDv3,2020.2.5,Win32,60,,,right,1,3.009400001,0,5,5,3,1,10000,0,109000,5
,,,,,,,,,,,,,,,,,,,,,,,3,93,2022-05-04_08h06.20.983,tareaTDv3,2020.2.5,Win32,60,,,left,1,3.59,0,6,6,20,1,10000,0,20000,90
,,,,,,,,,,,,,,,,,,,,,,,3,93,2022-05-04_08h06.20.983,tareaTDv3,2020.2.5,Win32,60,,,right,1,1.4042,0,7,7,58,1,5000,0,106000,152
,,,,,,,,,,,,,,,,,,,,,,,3,93,2022-05-04_08h06.20.983,tareaTDv3,2020.2.5,Win32,60,,,right,1,1.1207,0,8,8,36,1,5000,0,36000,9
,,,,,,,,,,,,,,,,,,,,,,,3,93,2022-05-04_08h06.20.983,tareaTDv3,2020.2.5,Win32,60,,,left,1,5.9443,0,9,9,35,1,5000,0,15000,11
,,,,,,,,,,,,,,,,,,,,,,,3,93,2022-05-04_08h06.20.983,tareaTDv3,2020.2.5,Win32,60,,,left,1,2.8228,0,10,10,0,1,10000,0,20000,5
,,,,,,,,,,,,,,,,,,,,,,,3,93,2022-05-04_08h06.20.983,tareaTDv3,2020.2.5,Win32,60,,,left,1,3.6589,0,11,11,83,1,25000,0,125000,89
,,,,,,,,,,,,,,,,,,,,,,,3,93,2022-05-04_08h06.20.983,tareaTDv3,2020.2.5,Win32,60,,,left,1,2.2038,0,12,12,1,1,10000,0,39000,6
,,,,,,,,,,,,,,,,,,,,,,,3,93,2022-05-04_08h06.20.983,tareaTDv3,2020.2.5,Win32,60,,,right,1,2.292,0,13,13,78,1,25000,0,125000,59
,,,,,,,,,,,,,,,,,,,,,,,3,93,2022-05-04_08h06.20.983,tareaTDv3,2020.2.5,Win32,60,,,right,1,3.6914,0,14,14,56,1,5000,0,35000,150
,,,,,,,,,,,,,,,,,,,,,,,3,93,2022-05-04_08h06.20.983,tareaTDv3,2020.2.5,Win32,60,,,left,1,4.0301,0,15,15,19,1,10000,0,149000,61
,,,,,,,,,,,,,,,,,,,,,,,3,93,2022-05-04_08h06.20.983,tareaTDv3,2020.2.5,Win32,60,,,right,1,1.3282,0,16,16,34,1,5000,0,151000,4
,,,,,,,,,,,,,,,,,,,,,,,3,93,2022-05-04_08h06.20.983,tareaTDv3,2020.2.5,Win32,60,,,right,1,4.8235,0,17,17,84,1,25000,0,150000,89
,,,,,,,,,,,,,,,,,,,,,,,3,93,2022-05-04_08h06.20.983,tareaTDv3,2020.2.5,Win32,60,,,left,1,2.8717,0,18,18,26,1,10000,0,39000,150
,,,,,,,,,,,,,,,,,,,,,,,3,93,2022-05-04_08h06.20.983,tareaTDv3,2020.2.5,Win32,60,,,left,0,5.055,0,19,19,25,1,10000,0,10000,150
,,,,,,,,,,,,,,,,,,,,,,,3,93,2022-05-04_08h06.20.983,tareaTDv3,2020.2.5,Win32,60,,,right,1,5.5527,0,20,20,75,1,25000,0,35000,60
,,,,,,,,,,,,,,,,,,,,,,,3,93,2022-05-04_08h06.20.983,tareaTDv3,2020.2.5,Win32,60,,,right,1,2.919,0,21,21,17,1,10000,0,60000,60
,,,,,,,,,,,,,,,,,,,,,,,3,93,2022-05-04_08h06.20.983,tareaTDv3,2020.2.5,Win32,60,,,right,1,2.7422,0,22,22,68,1,25000,0,125000,9
,,,,,,,,,,,,,,,,,,,,,,,3,93,2022-05-04_08h06.20.983,tareaTDv3,2020.2.5,Win32,60,,,right,1,2.7722,0,23,23,32,1,5000,0,54000,5
,,,,,,,,,,,,,,,,,,,,,,,3,93,2022-05-04_08h06.20.983,tareaTDv3,2020.2.5,Win32,60,,,left,1,2.837900001,0,24,24,70,1,25000,0,35000,30
,,,,,,,,,,,,,,,,,,,,,,,3,93,2022-05-04_08h06.20.983,tareaTDv3,2020.2.5,Win32,60,,,right,1,2.918900001,0,25,25,65,1,25000,0,35000,11
,,,,,,,,,,,,,,,,,,,,,,,3,93,2022-05-04_08h06.20.983,tareaTDv3,2020.2.5,Win32,60,,,right,1,2.037900001,0,26,26,53,1,5000,0,104000,90
,,,,,,,,,,,,,,,,,,,,,,,3,93,2022-05-04_08h06.20.983,tareaTDv3,2020.2.5,Win32,60,,,left,1,2.0386,0,27,27,28,1,10000,0,109000,149
,,,,,,,,,,,,,,,,,,,,,,,3,93,2022-05-04_08h06.20.983,tareaTDv3,2020.2.5,Win32,60,,,right,1,2.843,0,28,28,67,1,25000,0,75000,10
,,,,,,,,,,,,,,,,,,,,,,,3,93,2022-05-04_08h06.20.983,tareaTDv3,2020.2.5,Win32,60,,,left,1,3.561799999,0,29,29,76,1,25000,0,55000,60
,,,,,,,,,,,,,,,,,,,,,,,3,93,2022-05-04_08h06.20.983,tareaTDv3,2020.2.5,Win32,60,,,left,1,4.1584,0,30,30,18,1,10000,0,110000,60
,,,,,,,,,,,,,,,,,,,,,,,3,93,2022-05-04_08h06.20.983,tareaTDv3,2020.2.5,Win32,60,,,right,1,2.8121,0,31,31,27,1,10000,0,61000,150
,,,,,,,,,,,,,,,,,,,,,,,3,93,2022-05-04_08h06.20.983,tareaTDv3,2020.2.5,Win32,60,,,right,1,2.1212,0,32,32,31,1,5000,0,35000,6
,,,,,,,,,,,,,,,,,,,,,,,3,93,2022-05-04_08h06.20.983,tareaTDv3,2020.2.5,Win32,60,,,left,1,2.3693,0,33,33,44,1,5000,0,150000,30
,,,,,,,,,,,,,,,,,,,,,,,3,93,2022-05-04_08h06.20.983,tareaTDv3,2020.2.5,Win32,60,,,right,1,1.5535,0,34,34,7,1,10000,0,59000,9
,,,,,,,,,,,,,,,,,,,,,,,3,93,2022-05-04_08h06.20.983,tareaTDv3,2020.2.5,Win32,60,,,right,1,2.7923,0,35,35,45,1,5000,0,15000,61
,,,,,,,,,,,,,,,,,,,,,,,3,93,2022-05-04_08h06.20.983,tareaTDv3,2020.2.5,Win32,60,,,left,1,2.1258,0,36,36,41,1,5000,0,35000,31
,,,,,,,,,,,,,,,,,,,,,,,3,93,2022-05-04_08h06.20.983,tareaTDv3,2020.2.5,Win32,60,,,left,1,3.1899,0,37,37,79,1,25000,0,150000,61
,,,,,,,,,,,,,,,,,,,,,,,3,93,2022-05-04_08h06.20.983,tareaTDv3,2020.2.5,Win32,60,,,right,1,5.343099999,0,38,38,66,1,25000,0,55000,11
,,,,,,,,,,,,,,,,,,,,,,,3,93,2022-05-04_08h06.20.983,tareaTDv3,2020.2.5,Win32,60,,,right,1,2.8215,0,39,39,88,1,25000,0,125000,149
,,,,,,,,,,,,,,,,,,,,,,,3,93,2022-05-04_08h06.20.983,tareaTDv3,2020.2.5,Win32,60,,,right,1,4.7547,0,40,40,38,1,5000,0,104000,10
,,,,,,,,,,,,,,,,,,,,,,,3,93,2022-05-04_08h06.20.983,tareaTDv3,2020.2.5,Win32,60,,,right,1,1.5972,0,41,41,63,1,25000,0,125000,4
,,,,,,,,,,,,,,,,,,,,,,,3,93,2022-05-04_08h06.20.983,tareaTDv3,2020.2.5,Win32,60,,,right,1,3.9441,0,42,42,10,1,10000,0,21000,31
,,,,,,,,,,,,,,,,,,,,,,,3,93,2022-05-04_08h06.20.983,tareaTDv3,2020.2.5,Win32,60,,,right,1,1.6093,0,43,43,43,1,5000,0,106000,29
,,,,,,,,,,,,,,,,,,,,,,,3,93,2022-05-04_08h06.20.983,tareaTDv3,2020.2.5,Win32,60,,,left,1,2.4439,0,44,44,54,1,5000,0,150000,90
,,,,,,,,,,,,,,,,,,,,,,,3,93,2022-05-04_08h06.20.983,tareaTDv3,2020.2.5,Win32,60,,,right,1,1.855099999,0,45,45,71,1,25000,0,55000,30
,,,,,,,,,,,,,,,,,,,,,,,3,93,2022-05-04_08h06.20.983,tareaTDv3,2020.2.5,Win32,60,,,left,1,2.8055,0,46,46,22,1,10000,0,61000,89
,,,,,,,,,,,,,,,,,,,,,,,3,93,2022-05-04_08h06.20.983,tareaTDv3,2020.2.5,Win32,60,,,right,1,2.685599999,0,47,47,16,1,10000,0,39000,59
,,,,,,,,,,,,,,,,,,,,,,,3,93,2022-05-04_08h06.20.983,tareaTDv3,2020.2.5,Win32,60,,,right,1,3.5236,0,48,48,49,1,5000,0,149000,59
,,,,,,,,,,,,,,,,,,,,,,,3,93,2022-05-04_08h06.20.983,tareaTDv3,2020.2.5,Win32,60,,,left,1,3.6875,0,49,49,23,1,10000,0,110000,90
,,,,,,,,,,,,,,,,,,,,,,,3,93,2022-05-04_08h06.20.983,tareaTDv3,2020.2.5,Win32,60,,,left,1,2.8447,0,50,50,64,1,25000,0,150000,4
,,,,,,,,,,,,,,,,,,,,,,,3,93,2022-05-04_08h06.20.983,tareaTDv3,2020.2.5,Win32,60,,,left,1,8.739799999,0,51,51,77,1,25000,0,75000,59
,,,,,,,,,,,,,,,,,,,,,,,3,93,2022-05-04_08h06.20.983,tareaTDv3,2020.2.5,Win32,60,,,left,1,4.2757,0,52,52,13,1,10000,0,111000,30
,,,,,,,,,,,,,,,,,,,,,,,3,93,2022-05-04_08h06.20.983,tareaTDv3,2020.2.5,Win32,60,,,right,1,2.618,0,53,53,12,1,10000,0,60000,29
,,,,,,,,,,,,,,,,,,,,,,,3,93,2022-05-04_08h06.20.983,tareaTDv3,2020.2.5,Win32,60,,,left,1,1.619900001,0,54,54,30,1,5000,0,16000,4
,,,,,,,,,,,,,,,,,,,,,,,3,93,2022-05-04_08h06.20.983,tareaTDv3,2020.2.5,Win32,60,,,left,1,4.323900001,0,55,55,50,1,5000,0,15000,91
,,,,,,,,,,,,,,,,,,,,,,,3,93,2022-05-04_08h06.20.983,tareaTDv3,2020.2.5,Win32,60,,,left,1,3.756799999,0,56,56,6,1,10000,0,40000,10
,,,,,,,,,,,,,,,,,,,,,,,3,93,2022-05-04_08h06.20.983,tareaTDv3,2020.2.5,Win32,60,,,right,1,3.941799999,0,57,57,46,1,5000,0,36000,61
,,,,,,,,,,,,,,,,,,,,,,,3,93,2022-05-04_08h06.20.983,tareaTDv3,2020.2.5,Win32,60,,,left,1,1.4453,0,58,58,80,1,25000,0,35000,90
,,,,,,,,,,,,,,,,,,,,,,,3,93,2022-05-04_08h06.20.983,tareaTDv3,2020.2.5,Win32,60,,,left,1,2.2872,0,59,59,42,1,5000,0,56000,29
,,,,,,,,,,,,,,,,,,,,,,,3,93,2022-05-04_08h06.20.983,tareaTDv3,2020.2.5,Win32,60,,,right,1,1.771,0,60,60,40,1,5000,0,14000,31
,,,,,,,,,,,,,,,,,,,,,,,3,93,2022-05-04_08h06.20.983,tareaTDv3,2020.2.5,Win32,60,,,right,1,2.1596,0,61,61,57,1,5000,0,55000,151
,,,,,,,,,,,,,,,,,,,,,,,3,93,2022-05-04_08h06.20.983,tareaTDv3,2020.2.5,Win32,60,,,right,1,5.243099999,0,62,62,73,1,25000,0,125000,31
,,,,,,,,,,,,,,,,,,,,,,,3,93,2022-05-04_08h06.20.983,tareaTDv3,2020.2.5,Win32,60,,,right,1,4.3951,0,63,63,85,1,25000,0,35000,150
,,,,,,,,,,,,,,,,,,,,,,,3,93,2022-05-04_08h06.20.983,tareaTDv3,2020.2.5,Win32,60,,,right,1,6.7289,0,64,64,9,1,10000,0,151000,11
,,,,,,,,,,,,,,,,,,,,,,,3,93,2022-05-04_08h06.20.983,tareaTDv3,2020.2.5,Win32,60,,,left,1,3.185099999,0,65,65,52,1,5000,0,56000,89
,,,,,,,,,,,,,,,,,,,,,,,3,93,2022-05-04_08h06.20.983,tareaTDv3,2020.2.5,Win32,60,,,right,1,2.4774,0,66,66,74,1,25000,0,150000,29
,,,,,,,,,,,,,,,,,,,,,,,3,93,2022-05-04_08h06.20.983,tareaTDv3,2020.2.5,Win32,60,,,right,1,3.8282,0,67,67,82,1,25000,0,75000,90
,,,,,,,,,,,,,,,,,,,,,,,3,93,2022-05-04_08h06.20.983,tareaTDv3,2020.2.5,Win32,60,,,left,1,2.9235,0,68,68,11,1,10000,0,39000,29
,,,,,,,,,,,,,,,,,,,,,,,3,93,2022-05-04_08h06.20.983,tareaTDv3,2020.2.5,Win32,60,,,left,1,1.9548,0,69,69,21,1,10000,0,40000,91
,,,,,,,,,,,,,,,,,,,,,,,3,93,2022-05-04_08h06.20.983,tareaTDv3,2020.2.5,Win32,60,,,right,1,2.7215,0,70,70,59,1,5000,0,151000,150
,,,,,,,,,,,,,,,,,,,,,,,3,93,2022-05-04_08h06.20.983,tareaTDv3,2020.2.5,Win32,60,,,right,1,1.453400001,0,71,71,39,1,5000,0,149000,10
,,,,,,,,,,,,,,,,,,,,,,,3,93,2022-05-04_08h06.20.983,tareaTDv3,2020.2.5,Win32,60,,,left,1,3.469,0,72,72,15,1,10000,0,20000,59
,,,,,,,,,,,,,,,,,,,,,,,3,93,2022-05-04_08h06.20.983,tareaTDv3,2020.2.5,Win32,60,,,left,1,2.0543,0,73,73,87,1,25000,0,75000,151
,,,,,,,,,,,,,,,,,,,,,,,3,93,2022-05-04_08h06.20.983,tareaTDv3,2020.2.5,Win32,60,,,right,1,1.7529,0,74,74,61,1,25000,0,55000,6
,,,,,,,,,,,,,,,,,,,,,,,3,93,2022-05-04_08h06.20.983,tareaTDv3,2020.2.5,Win32,60,,,right,1,1.3395,0,75,75,48,1,5000,0,105000,60
,,,,,,,,,,,,,,,,,,,,,,,3,93,2022-05-04_08h06.20.983,tareaTDv3,2020.2.5,Win32,60,,,right,1,4.4075,0,76,76,55,1,5000,0,14000,149
,,,,,,,,,,,,,,,,,,,,,,,3,93,2022-05-04_08h06.20.983,tareaTDv3,2020.2.5,Win32,60,,,right,1,1.3688,0,77,77,37,1,5000,0,56000,9
,,,,,,,,,,,,,,,,,,,,,,,3,93,2022-05-04_08h06.20.983,tareaTDv3,2020.2.5,Win32,60,,,left,1,1.07,0,78,78,60,1,25000,0,35000,5
,,,,,,,,,,,,,,,,,,,,,,,3,93,2022-05-04_08h06.20.983,tareaTDv3,2020.2.5,Win32,60,,,right,1,2.6442,0,79,79,62,1,25000,0,75000,5
,,,,,,,,,,,,,,,,,,,,,,,3,93,2022-05-04_08h06.20.983,tareaTDv3,2020.2.5,Win32,60,,,right,1,1.903900001,0,80,80,24,1,10000,0,149000,89
,,,,,,,,,,,,,,,,,,,,,,,3,93,2022-05-04_08h06.20.983,tareaTDv3,2020.2.5,Win32,60,,,right,1,1.8212,0,81,81,5,1,10000,0,19000,11
,,,,,,,,,,,,,,,,,,,,,,,3,93,2022-05-04_08h06.20.983,tareaTDv3,2020.2.5,Win32,60,,,left,1,1.6995,0,82,82,4,1,10000,0,150000,5
,,,,,,,,,,,,,,,,,,,,,,,3,93,2022-05-04_08h06.20.983,tareaTDv3,2020.2.5,Win32,60,,,right,1,3.339,0,83,83,47,1,5000,0,56000,60
,,,,,,,,,,,,,,,,,,,,,,,3,93,2022-05-04_08h06.20.983,tareaTDv3,2020.2.5,Win32,60,,,right,1,2.3979,0,84,84,33,1,5000,0,104000,5
,,,,,,,,,,,,,,,,,,,,,,,3,93,2022-05-04_08h06.20.983,tareaTDv3,2020.2.5,Win32,60,,,right,1,2.1214,0,85,85,69,1,25000,0,150000,9
,,,,,,,,,,,,,,,,,,,,,,,3,93,2022-05-04_08h06.20.983,tareaTDv3,2020.2.5,Win32,60,,,left,1,2.3733,0,86,86,29,1,10000,0,151000,151
,,,,,,,,,,,,,,,,,,,,,,,3,93,2022-05-04_08h06.20.983,tareaTDv3,2020.2.5,Win32,60,,,right,1,2.04,0,87,87,51,1,5000,0,35000,89
,,,,,,,,,,,,,,,,,,,,,,,3,93,2022-05-04_08h06.20.983,tareaTDv3,2020.2.5,Win32,60,,,right,1,3.4578,0,88,88,89,1,25000,0,150000,150
,,,,,,,,,,,,,,,,,,,,,,,3,93,2022-05-04_08h06.20.983,tareaTDv3,2020.2.5,Win32,60,,,right,1,5.892400001,0,89,89,72,1,25000,0,75000,31