key1.keys,key1.rt,key2.keys,key2.rt,key2_2.keys,key2_2.rt,key2_3.keys,key2_3.rt,key3.keys,key3.rt,key4.keys,key4.rt,respP.keys,respP.corr,respP.rt,Practice.thisRepN,Practice.thisTrialN,Practice.thisN,Practice.thisIndex,Practice.ran,ssAmount,llAmount,llDelay,session,participant,date,expName,psychopyVersion,OS,frameRate,key5.keys,key5.rt,respT.keys,respT.corr,respT.rt,trials.thisRepN,trials.thisTrialN,trials.thisN,trials.thisIndex,trials.ran,ss_am,ss_del,ll_am,ll_del
space,47.8801,space,30.659,space,30.671,space,8.3526,right,65.174,space,12.0682,left,0.0,3.8209,0.0,0.0,0.0,0.0,1.0,10000.0,109000.0,9.0,2,9999,2021-10-11_12h17.03.419,tareaTDv3,2020.2.5,MacIntel,60,,,,,,,,,,,,,,
,,,,,,,,,,,,left,0.0,4.5177,0.0,1.0,1.0,1.0,1.0,25000.0,35000.0,150.0,2,9999,2021-10-11_12h17.03.419,tareaTDv3,2020.2.5,MacIntel,60,,,,,,,,,,,,,,
,,,,,,,,,,,,right,0.0,7.3197,0.0,2.0,2.0,2.0,1.0,10000.0,19000.0,89.0,2,9999,2021-10-11_12h17.03.419,tareaTDv3,2020.2.5,MacIntel,60,,,,,,,,,,,,,,
,,,,,,,,,,,,,,,,,,,,,,,2,9999,2021-10-11_12h17.03.419,tareaTDv3,2020.2.5,MacIntel,60,g,56.386,left,1.0,6.059,0.0,0.0,0.0,34.0,1.0,5000.0,0.0,151000.0,4.0
,,,,,,,,,,,,,,,,,,,,,,,2,9999,2021-10-11_12h17.03.419,tareaTDv3,2020.2.5,MacIntel,60,,,right,1.0,10.9492,0.0,1.0,1.0,76.0,1.0,25000.0,0.0,55000.0,60.0
,,,,,,,,,,,,,,,,,,,,,,,2,9999,2021-10-11_12h17.03.419,tareaTDv3,2020.2.5,MacIntel,60,,,left,1.0,4.4012,0.0,2.0,2.0,62.0,1.0,25000.0,0.0,75000.0,5.0
,,,,,,,,,,,,,,,,,,,,,,,2,9999,2021-10-11_12h17.03.419,tareaTDv3,2020.2.5,MacIntel,60,,,right,1.0,8.8238,0.0,3.0,3.0,5.0,1.0,10000.0,0.0,19000.0,11.0
,,,,,,,,,,,,,,,,,,,,,,,2,9999,2021-10-11_12h17.03.419,tareaTDv3,2020.2.5,MacIntel,60,,,right,0.0,5.2484,0.0,4.0,4.0,83.0,1.0,25000.0,0.0,125000.0,89.0
,,,,,,,,,,,,,,,,,,,,,,,2,9999,2021-10-11_12h17.03.419,tareaTDv3,2020.2.5,MacIntel,60,,,right,1.0,4.6431,0.0,5.0,5.0,35.0,1.0,5000.0,0.0,15000.0,11.0
,,,,,,,,,,,,,,,,,,,,,,,2,9999,2021-10-11_12h17.03.419,tareaTDv3,2020.2.5,MacIntel,60,,,left,1.0,2.0688,0.0,6.0,6.0,60.0,1.0,25000.0,0.0,35000.0,5.0
,,,,,,,,,,,,,,,,,,,,,,,2,9999,2021-10-11_12h17.03.419,tareaTDv3,2020.2.5,MacIntel,60,,,left,0.0,4.4238,0.0,7.0,7.0,15.0,1.0,10000.0,0.0,20000.0,59.0
,,,,,,,,,,,,,,,,,,,,,,,2,9999,2021-10-11_12h17.03.419,tareaTDv3,2020.2.5,MacIntel,60,,,left,1.0,6.2155,0.0,8.0,8.0,21.0,1.0,10000.0,0.0,40000.0,91.0
,,,,,,,,,,,,,,,,,,,,,,,2,9999,2021-10-11_12h17.03.419,tareaTDv3,2020.2.5,MacIntel,60,,,right,1.0,1.8007,0.0,9.0,9.0,11.0,1.0,10000.0,0.0,39000.0,29.0
,,,,,,,,,,,,,,,,,,,,,,,2,9999,2021-10-11_12h17.03.419,tareaTDv3,2020.2.5,MacIntel,60,,,left,1.0,7.0873,0.0,10.0,10.0,66.0,1.0,25000.0,0.0,55000.0,11.0
,,,,,,,,,,,,,,,,,,,,,,,2,9999,2021-10-11_12h17.03.419,tareaTDv3,2020.2.5,MacIntel,60,,,left,1.0,1.5435,0.0,11.0,11.0,40.0,1.0,5000.0,0.0,14000.0,31.0
,,,,,,,,,,,,,,,,,,,,,,,2,9999,2021-10-11_12h17.03.419,tareaTDv3,2020.2.5,MacIntel,60,,,left,1.0,1.122,0.0,12.0,12.0,67.0,1.0,25000.0,0.0,75000.0,10.0
,,,,,,,,,,,,,,,,,,,,,,,2,9999,2021-10-11_12h17.03.419,tareaTDv3,2020.2.5,MacIntel,60,,,,0.0,,0.0,13.0,13.0,37.0,1.0,5000.0,0.0,56000.0,9.0
,,,,,,,,,,,,,,,,,,,,,,,2,9999,2021-10-11_12h17.03.419,tareaTDv3,2020.2.5,MacIntel,60,,,,0.0,,0.0,14.0,14.0,56.0,1.0,5000.0,0.0,35000.0,150.0
,,,,,,,,,,,,,,,,,,,,,,,2,9999,2021-10-11_12h17.03.419,tareaTDv3,2020.2.5,MacIntel,60,,,,0.0,,0.0,15.0,15.0,44.0,1.0,5000.0,0.0,150000.0,30.0
,,,,,,,,,,,,,,,,,,,,,,,2,9999,2021-10-11_12h17.03.419,tareaTDv3,2020.2.5,MacIntel,60,,,,0.0,,0.0,16.0,16.0,25.0,1.0,10000.0,0.0,10000.0,150.0
,,,,,,,,,,,,,,,,,,,,,,,2,9999,2021-10-11_12h17.03.419,tareaTDv3,2020.2.5,MacIntel,60,,,,0.0,,0.0,17.0,17.0,24.0,1.0,10000.0,0.0,149000.0,89.0
,,,,,,,,,,,,,,,,,,,,,,,2,9999,2021-10-11_12h17.03.419,tareaTDv3,2020.2.5,MacIntel,60,,,,0.0,,0.0,18.0,18.0,48.0,1.0,5000.0,0.0,105000.0,60.0
,,,,,,,,,,,,,,,,,,,,,,,2,9999,2021-10-11_12h17.03.419,tareaTDv3,2020.2.5,MacIntel,60,,,,0.0,,0.0,19.0,19.0,54.0,1.0,5000.0,0.0,150000.0,90.0
,,,,,,,,,,,,,,,,,,,,,,,2,9999,2021-10-11_12h17.03.419,tareaTDv3,2020.2.5,MacIntel,60,,,right,1.0,0.2662,0.0,20.0,20.0,31.0,1.0,5000.0,0.0,35000.0,6.0
,,,,,,,,,,,,,,,,,,,,,,,2,9999,2021-10-11_12h17.03.419,tareaTDv3,2020.2.5,MacIntel,60,,,left,1.0,0.6689,0.0,21.0,21.0,45.0,1.0,5000.0,0.0,15000.0,61.0
,,,,,,,,,,,,,,,,,,,,,,,2,9999,2021-10-11_12h17.03.419,tareaTDv3,2020.2.5,MacIntel,60,,,right,1.0,0.0603,0.0,22.0,22.0,29.0,1.0,10000.0,0.0,151000.0,151.0
,,,,,,,,,,,,,,,,,,,,,,,2,9999,2021-10-11_12h17.03.419,tareaTDv3,2020.2.5,MacIntel,60,,,,0.0,,0.0,23.0,23.0,8.0,1.0,10000.0,0.0,111000.0,10.0
,,,,,,,,,,,,,,,,,,,,,,,2,9999,2021-10-11_12h17.03.419,tareaTDv3,2020.2.5,MacIntel,60,,,,0.0,,0.0,24.0,24.0,78.0,1.0,25000.0,0.0,125000.0,59.0
,,,,,,,,,,,,,,,,,,,,,,,2,9999,2021-10-11_12h17.03.419,tareaTDv3,2020.2.5,MacIntel,60,,,left,0.0,0.564,0.0,25.0,25.0,42.0,1.0,5000.0,0.0,56000.0,29.0
,,,,,,,,,,,,,,,,,,,,,,,2,9999,2021-10-11_12h17.03.419,tareaTDv3,2020.2.5,MacIntel,60,,,,0.0,,0.0,26.0,26.0,85.0,1.0,25000.0,0.0,35000.0,150.0
,,,,,,,,,,,,,,,,,,,,,,,2,9999,2021-10-11_12h17.03.419,tareaTDv3,2020.2.5,MacIntel,60,,,left,1.0,0.1869,0.0,27.0,27.0,72.0,1.0,25000.0,0.0,75000.0,31.0
,,,,,,,,,,,,,,,,,,,,,,,2,9999,2021-10-11_12h17.03.419,tareaTDv3,2020.2.5,MacIntel,60,,,right,0.0,0.1239,0.0,28.0,28.0,36.0,1.0,5000.0,0.0,36000.0,9.0
,,,,,,,,,,,,,,,,,,,,,,,2,9999,2021-10-11_12h17.03.419,tareaTDv3,2020.2.5,MacIntel,60,,,,0.0,,0.0,29.0,29.0,30.0,1.0,5000.0,0.0,16000.0,4.0
,,,,,,,,,,,,,,,,,,,,,,,2,9999,2021-10-11_12h17.03.419,tareaTDv3,2020.2.5,MacIntel,60,,,,0.0,,0.0,30.0,30.0,43.0,1.0,5000.0,0.0,106000.0,29.0
,,,,,,,,,,,,,,,,,,,,,,,2,9999,2021-10-11_12h17.03.419,tareaTDv3,2020.2.5,MacIntel,60,,,,0.0,,0.0,31.0,31.0,49.0,1.0,5000.0,0.0,149000.0,59.0
,,,,,,,,,,,,,,,,,,,,,,,2,9999,2021-10-11_12h17.03.419,tareaTDv3,2020.2.5,MacIntel,60,,,,0.0,,0.0,32.0,32.0,70.0,1.0,25000.0,0.0,35000.0,30.0
,,,,,,,,,,,,,,,,,,,,,,,2,9999,2021-10-11_12h17.03.419,tareaTDv3,2020.2.5,MacIntel,60,,,left,0.0,5.0504,0.0,33.0,33.0,80.0,1.0,25000.0,0.0,35000.0,90.0
,,,,,,,,,,,,,,,,,,,,,,,2,9999,2021-10-11_12h17.03.419,tareaTDv3,2020.2.5,MacIntel,60,,,left,1.0,0.1478,0.0,34.0,34.0,71.0,1.0,25000.0,0.0,55000.0,30.0
,,,,,,,,,,,,,,,,,,,,,,,2,9999,2021-10-11_12h17.03.419,tareaTDv3,2020.2.5,MacIntel,60,,,left,0.0,0.9873,0.0,35.0,35.0,57.0,1.0,5000.0,0.0,55000.0,151.0
,,,,,,,,,,,,,,,,,,,,,,,2,9999,2021-10-11_12h17.03.419,tareaTDv3,2020.2.5,MacIntel,60,,,right,0.0,1.0451,0.0,36.0,36.0,16.0,1.0,10000.0,0.0,39000.0,59.0
,,,,,,,,,,,,,,,,,,,,,,,2,9999,2021-10-11_12h17.03.419,tareaTDv3,2020.2.5,MacIntel,60,,,left,0.0,0.2555,0.0,37.0,37.0,23.0,1.0,10000.0,0.0,110000.0,90.0
,,,,,,,,,,,,,,,,,,,,,,,2,9999,2021-10-11_12h17.03.419,tareaTDv3,2020.2.5,MacIntel,60,,,right,0.0,0.6475,0.0,38.0,38.0,61.0,1.0,25000.0,0.0,55000.0,6.0
,,,,,,,,,,,,,,,,,,,,,,,2,9999,2021-10-11_12h17.03.419,tareaTDv3,2020.2.5,MacIntel,60,,,left,0.0,0.015,0.0,39.0,39.0,69.0,1.0,25000.0,0.0,150000.0,9.0
,,,,,,,,,,,,,,,,,,,,,,,2,9999,2021-10-11_12h17.03.419,tareaTDv3,2020.2.5,MacIntel,60,,,left,1.0,0.85,0.0,40.0,40.0,73.0,1.0,25000.0,0.0,125000.0,31.0
,,,,,,,,,,,,,,,,,,,,,,,2,9999,2021-10-11_12h17.03.419,tareaTDv3,2020.2.5,MacIntel,60,,,right,1.0,0.1709,0.0,41.0,41.0,59.0,1.0,5000.0,0.0,151000.0,150.0
,,,,,,,,,,,,,,,,,,,,,,,2,9999,2021-10-11_12h17.03.419,tareaTDv3,2020.2.5,MacIntel,60,,,right,0.0,0.3055,0.0,42.0,42.0,82.0,1.0,25000.0,0.0,75000.0,90.0
,,,,,,,,,,,,,,,,,,,,,,,2,9999,2021-10-11_12h17.03.419,tareaTDv3,2020.2.5,MacIntel,60,,,right,0.0,0.1166,0.0,43.0,43.0,55.0,1.0,5000.0,0.0,14000.0,149.0
,,,,,,,,,,,,,,,,,,,,,,,2,9999,2021-10-11_12h17.03.419,tareaTDv3,2020.2.5,MacIntel,60,,,right,1.0,0.5414,0.0,44.0,44.0,84.0,1.0,25000.0,0.0,150000.0,89.0
,,,,,,,,,,,,,,,,,,,,,,,2,9999,2021-10-11_12h17.03.419,tareaTDv3,2020.2.5,MacIntel,60,,,right,1.0,0.4235,0.0,45.0,45.0,14.0,1.0,10000.0,0.0,150000.0,30.0
,,,,,,,,,,,,,,,,,,,,,,,2,9999,2021-10-11_12h17.03.419,tareaTDv3,2020.2.5,MacIntel,60,,,left,0.0,0.1714,0.0,46.0,46.0,13.0,1.0,10000.0,0.0,111000.0,30.0
,,,,,,,,,,,,,,,,,,,,,,,2,9999,2021-10-11_12h17.03.419,tareaTDv3,2020.2.5,MacIntel,60,,,right,0.0,0.7991,0.0,47.0,47.0,41.0,1.0,5000.0,0.0,35000.0,31.0
,,,,,,,,,,,,,,,,,,,,,,,2,9999,2021-10-11_12h17.03.419,tareaTDv3,2020.2.5,MacIntel,60,,,right,1.0,0.2817,0.0,48.0,48.0,17.0,1.0,10000.0,0.0,60000.0,60.0
,,,,,,,,,,,,,,,,,,,,,,,2,9999,2021-10-11_12h17.03.419,tareaTDv3,2020.2.5,MacIntel,60,,,right,1.0,0.6236,0.0,49.0,49.0,81.0,1.0,25000.0,0.0,55000.0,90.0
,,,,,,,,,,,,,,,,,,,,,,,2,9999,2021-10-11_12h17.03.419,tareaTDv3,2020.2.5,MacIntel,60,,,right,0.0,0.0602,0.0,50.0,50.0,3.0,1.0,10000.0,0.0,109000.0,5.0
,,,,,,,,,,,,,,,,,,,,,,,2,9999,2021-10-11_12h17.03.419,tareaTDv3,2020.2.5,MacIntel,60,,,right,0.0,0.0559,0.0,51.0,51.0,75.0,1.0,25000.0,0.0,35000.0,60.0
,,,,,,,,,,,,,,,,,,,,,,,2,9999,2021-10-11_12h17.03.419,tareaTDv3,2020.2.5,MacIntel,60,,,right,0.0,1.0431,0.0,52.0,52.0,26.0,1.0,10000.0,0.0,39000.0,150.0
,,,,,,,,,,,,,,,,,,,,,,,2,9999,2021-10-11_12h17.03.419,tareaTDv3,2020.2.5,MacIntel,60,,,left,1.0,4.3448,0.0,53.0,53.0,28.0,1.0,10000.0,0.0,109000.0,149.0
,,,,,,,,,,,,,,,,,,,,,,,2,9999,2021-10-11_12h17.03.419,tareaTDv3,2020.2.5,MacIntel,60,,,right,1.0,0.3226,0.0,54.0,54.0,86.0,1.0,25000.0,0.0,55000.0,151.0
,,,,,,,,,,,,,,,,,,,,,,,2,9999,2021-10-11_12h17.03.419,tareaTDv3,2020.2.5,MacIntel,60,,,right,1.0,0.0901,0.0,55.0,55.0,63.0,1.0,25000.0,0.0,125000.0,4.0
,,,,,,,,,,,,,,,,,,,,,,,2,9999,2021-10-11_12h17.03.419,tareaTDv3,2020.2.5,MacIntel,60,,,left,1.0,1.072,0.0,56.0,56.0,1.0,1.0,10000.0,0.0,39000.0,6.0
,,,,,,,,,,,,,,,,,,,,,,,2,9999,2021-10-11_12h17.03.419,tareaTDv3,2020.2.5,MacIntel,60,,,right,0.0,0.0722,0.0,57.0,57.0,32.0,1.0,5000.0,0.0,54000.0,5.0
,,,,,,,,,,,,,,,,,,,,,,,2,9999,2021-10-11_12h17.03.419,tareaTDv3,2020.2.5,MacIntel,60,,,right,1.0,0.0683,0.0,58.0,58.0,9.0,1.0,10000.0,0.0,151000.0,11.0
,,,,,,,,,,,,,,,,,,,,,,,2,9999,2021-10-11_12h17.03.419,tareaTDv3,2020.2.5,MacIntel,60,,,right,1.0,0.2211,0.0,59.0,59.0,74.0,1.0,25000.0,0.0,150000.0,29.0
,,,,,,,,,,,,,,,,,,,,,,,2,9999,2021-10-11_12h17.03.419,tareaTDv3,2020.2.5,MacIntel,60,,,right,1.0,0.6894,0.0,60.0,60.0,0.0,1.0,10000.0,0.0,20000.0,5.0
,,,,,,,,,,,,,,,,,,,,,,,2,9999,2021-10-11_12h17.03.419,tareaTDv3,2020.2.5,MacIntel,60,,,right,1.0,0.2208,0.0,61.0,61.0,52.0,1.0,5000.0,0.0,56000.0,89.0
,,,,,,,,,,,,,,,,,,,,,,,2,9999,2021-10-11_12h17.03.419,tareaTDv3,2020.2.5,MacIntel,60,,,right,1.0,0.4446,0.0,62.0,62.0,27.0,1.0,10000.0,0.0,61000.0,150.0
,,,,,,,,,,,,,,,,,,,,,,,2,9999,2021-10-11_12h17.03.419,tareaTDv3,2020.2.5,MacIntel,60,,,left,0.0,0.228,0.0,63.0,63.0,58.0,1.0,5000.0,0.0,106000.0,152.0
,,,,,,,,,,,,,,,,,,,,,,,2,9999,2021-10-11_12h17.03.419,tareaTDv3,2020.2.5,MacIntel,60,,,right,0.0,0.3688,0.0,64.0,64.0,38.0,1.0,5000.0,0.0,104000.0,10.0
,,,,,,,,,,,,,,,,,,,,,,,2,9999,2021-10-11_12h17.03.419,tareaTDv3,2020.2.5,MacIntel,60,,,left,0.0,0.625,0.0,65.0,65.0,22.0,1.0,10000.0,0.0,61000.0,89.0
,,,,,,,,,,,,,,,,,,,,,,,2,9999,2021-10-11_12h17.03.419,tareaTDv3,2020.2.5,MacIntel,60,,,right,1.0,0.0858,0.0,66.0,66.0,33.0,1.0,5000.0,0.0,104000.0,5.0
,,,,,,,,,,,,,,,,,,,,,,,2,9999,2021-10-11_12h17.03.419,tareaTDv3,2020.2.5,MacIntel,60,,,right,0.0,0.0925,0.0,67.0,67.0,46.0,1.0,5000.0,0.0,36000.0,61.0
,,,,,,,,,,,,,,,,,,,,,,,2,9999,2021-10-11_12h17.03.419,tareaTDv3,2020.2.5,MacIntel,60,,,left,0.0,0.8021,0.0,68.0,68.0,12.0,1.0,10000.0,0.0,60000.0,29.0
,,,,,,,,,,,,,,,,,,,,,,,2,9999,2021-10-11_12h17.03.419,tareaTDv3,2020.2.5,MacIntel,60,,,left,1.0,0.1469,0.0,69.0,69.0,4.0,1.0,10000.0,0.0,150000.0,5.0
,,,,,,,,,,,,,,,,,,,,,,,2,9999,2021-10-11_12h17.03.419,tareaTDv3,2020.2.5,MacIntel,60,,,left,0.0,0.1255,0.0,70.0,70.0,7.0,1.0,10000.0,0.0,59000.0,9.0
,,,,,,,,,,,,,,,,,,,,,,,2,9999,2021-10-11_12h17.03.419,tareaTDv3,2020.2.5,MacIntel,60,,,right,0.0,0.2499,0.0,71.0,71.0,65.0,1.0,25000.0,0.0,35000.0,11.0
,,,,,,,,,,,,,,,,,,,,,,,2,9999,2021-10-11_12h17.03.419,tareaTDv3,2020.2.5,MacIntel,60,,,left,1.0,0.2688,0.0,72.0,72.0,47.0,1.0,5000.0,0.0,56000.0,60.0
,,,,,,,,,,,,,,,,,,,,,,,2,9999,2021-10-11_12h17.03.419,tareaTDv3,2020.2.5,MacIntel,60,,,,0.0,,0.0,73.0,73.0,10.0,1.0,10000.0,0.0,21000.0,31.0
,,,,,,,,,,,,,,,,,,,,,,,2,9999,2021-10-11_12h17.03.419,tareaTDv3,2020.2.5,MacIntel,60,,,,0.0,,0.0,74.0,74.0,51.0,1.0,5000.0,0.0,35000.0,89.0
,,,,,,,,,,,,,,,,,,,,,,,2,9999,2021-10-11_12h17.03.419,tareaTDv3,2020.2.5,MacIntel,60,,,,0.0,,0.0,75.0,75.0,39.0,1.0,5000.0,0.0,149000.0,10.0
,,,,,,,,,,,,,,,,,,,,,,,2,9999,2021-10-11_12h17.03.419,tareaTDv3,2020.2.5,MacIntel,60,,,,0.0,,0.0,76.0,76.0,89.0,1.0,25000.0,0.0,150000.0,150.0
,,,,,,,,,,,,,,,,,,,,,,,2,9999,2021-10-11_12h17.03.419,tareaTDv3,2020.2.5,MacIntel,60,,,,0.0,,0.0,77.0,77.0,53.0,1.0,5000.0,0.0,104000.0,90.0
,,,,,,,,,,,,,,,,,,,,,,,2,9999,2021-10-11_12h17.03.419,tareaTDv3,2020.2.5,MacIntel,60,,,,0.0,,0.0,78.0,78.0,88.0,1.0,25000.0,0.0,125000.0,149.0
,,,,,,,,,,,,,,,,,,,,,,,2,9999,2021-10-11_12h17.03.419,tareaTDv3,2020.2.5,MacIntel,60,,,,0.0,,0.0,79.0,79.0,68.0,1.0,25000.0,0.0,125000.0,9.0
,,,,,,,,,,,,,,,,,,,,,,,2,9999,2021-10-11_12h17.03.419,tareaTDv3,2020.2.5,MacIntel,60,,,,0.0,,0.0,80.0,80.0,19.0,1.0,10000.0,0.0,149000.0,61.0
,,,,,,,,,,,,,,,,,,,,,,,2,9999,2021-10-11_12h17.03.419,tareaTDv3,2020.2.5,MacIntel,60,,,,0.0,,0.0,81.0,81.0,18.0,1.0,10000.0,0.0,110000.0,60.0
,,,,,,,,,,,,,,,,,,,,,,,2,9999,2021-10-11_12h17.03.419,tareaTDv3,2020.2.5,MacIntel,60,,,right,0.0,0.2181,0.0,82.0,82.0,87.0,1.0,25000.0,0.0,75000.0,151.0
,,,,,,,,,,,,,,,,,,,,,,,2,9999,2021-10-11_12h17.03.419,tareaTDv3,2020.2.5,MacIntel,60,,,,0.0,,0.0,83.0,83.0,50.0,1.0,5000.0,0.0,15000.0,91.0
,,,,,,,,,,,,,,,,,,,,,,,2,9999,2021-10-11_12h17.03.419,tareaTDv3,2020.2.5,MacIntel,60,,,,0.0,,0.0,84.0,84.0,2.0,1.0,10000.0,0.0,61000.0,4.0
,,,,,,,,,,,,,,,,,,,,,,,2,9999,2021-10-11_12h17.03.419,tareaTDv3,2020.2.5,MacIntel,60,,,,0.0,,0.0,85.0,85.0,79.0,1.0,25000.0,0.0,150000.0,61.0
,,,,,,,,,,,,,,,,,,,,,,,2,9999,2021-10-11_12h17.03.419,tareaTDv3,2020.2.5,MacIntel,60,,,,0.0,,0.0,86.0,86.0,6.0,1.0,10000.0,0.0,40000.0,10.0
,,,,,,,,,,,,,,,,,,,,,,,2,9999,2021-10-11_12h17.03.419,tareaTDv3,2020.2.5,MacIntel,60,,,,0.0,,0.0,87.0,87.0,20.0,1.0,10000.0,0.0,20000.0,90.0
,,,,,,,,,,,,,,,,,,,,,,,2,9999,2021-10-11_12h17.03.419,tareaTDv3,2020.2.5,MacIntel,60,,,,0.0,,0.0,88.0,88.0,77.0,1.0,25000.0,0.0,75000.0,59.0
,,,,,,,,,,,,,,,,,,,,,,,2,9999,2021-10-11_12h17.03.419,tareaTDv3,2020.2.5,MacIntel,60,,,,0.0,,0.0,89.0,89.0,64.0,1.0,25000.0,0.0,150000.0,4.0
