key1.keys,key1.rt,key2.keys,key2.rt,key2_2.keys,key2_2.rt,key2_3.keys,key2_3.rt,key3.keys,key3.rt,key4.keys,key4.rt,respP.keys,respP.corr,respP.rt,Practice.thisRepN,Practice.thisTrialN,Practice.thisN,Practice.thisIndex,Practice.ran,ssAmount,llAmount,llDelay,session,participant,date,expName,psychopyVersion,OS,frameRate,key5.keys,key5.rt,respT.keys,respT.corr,respT.rt,trials.thisRepN,trials.thisTrialN,trials.thisN,trials.thisIndex,trials.ran,ss_am,ss_del,ll_am,ll_del,key_resp_4.keys,key_resp_4.rt
space,54.3227,space,10.0526,space,2.4834,space,5.2959,left,5.3477,space,2.1844,left,0.0,3.3678,0.0,0.0,0.0,1.0,1.0,25000.0,35000.0,150.0,07-09-2022,f483,2022-09-07_08h47.37.688,tareaTDv3,2020.2.5,Win32,60,,,,,,,,,,,,,,,,
,,,,,,,,,,,,left,1.0,9.2953,0.0,1.0,1.0,0.0,1.0,10000.0,109000.0,9.0,07-09-2022,f483,2022-09-07_08h47.37.688,tareaTDv3,2020.2.5,Win32,60,,,,,,,,,,,,,,,,
,,,,,,,,,,,,right,0.0,5.364,0.0,2.0,2.0,2.0,1.0,10000.0,19000.0,89.0,07-09-2022,f483,2022-09-07_08h47.37.688,tareaTDv3,2020.2.5,Win32,60,,,,,,,,,,,,,,,,
,,,,,,,,,,,,,,,,,,,,,,,07-09-2022,f483,2022-09-07_08h47.37.688,tareaTDv3,2020.2.5,Win32,60,g,36.5522,right,1.0,5.3677,0.0,0.0,0.0,47.0,1.0,5000.0,0.0,56000.0,60.0,,
,,,,,,,,,,,,,,,,,,,,,,,07-09-2022,f483,2022-09-07_08h47.37.688,tareaTDv3,2020.2.5,Win32,60,,,right,1.0,5.7297,0.0,1.0,1.0,79.0,1.0,25000.0,0.0,150000.0,61.0,,
,,,,,,,,,,,,,,,,,,,,,,,07-09-2022,f483,2022-09-07_08h47.37.688,tareaTDv3,2020.2.5,Win32,60,,,right,1.0,8.5933,0.0,2.0,2.0,65.0,1.0,25000.0,0.0,35000.0,11.0,,
,,,,,,,,,,,,,,,,,,,,,,,07-09-2022,f483,2022-09-07_08h47.37.688,tareaTDv3,2020.2.5,Win32,60,,,left,1.0,5.8406,0.0,3.0,3.0,57.0,1.0,5000.0,0.0,55000.0,151.0,,
,,,,,,,,,,,,,,,,,,,,,,,07-09-2022,f483,2022-09-07_08h47.37.688,tareaTDv3,2020.2.5,Win32,60,,,right,0.0,3.8358,0.0,4.0,4.0,86.0,1.0,25000.0,0.0,55000.0,151.0,,
,,,,,,,,,,,,,,,,,,,,,,,07-09-2022,f483,2022-09-07_08h47.37.688,tareaTDv3,2020.2.5,Win32,60,,,right,0.0,6.2225,0.0,5.0,5.0,55.0,1.0,5000.0,0.0,14000.0,149.0,,
,,,,,,,,,,,,,,,,,,,,,,,07-09-2022,f483,2022-09-07_08h47.37.688,tareaTDv3,2020.2.5,Win32,60,,,left,1.0,10.162,0.0,6.0,6.0,88.0,1.0,25000.0,0.0,125000.0,149.0,,
,,,,,,,,,,,,,,,,,,,,,,,07-09-2022,f483,2022-09-07_08h47.37.688,tareaTDv3,2020.2.5,Win32,60,,,left,1.0,4.6038,0.0,7.0,7.0,16.0,1.0,10000.0,0.0,39000.0,59.0,,
,,,,,,,,,,,,,,,,,,,,,,,07-09-2022,f483,2022-09-07_08h47.37.688,tareaTDv3,2020.2.5,Win32,60,,,left,1.0,2.2529,0.0,8.0,8.0,52.0,1.0,5000.0,0.0,56000.0,89.0,,
,,,,,,,,,,,,,,,,,,,,,,,07-09-2022,f483,2022-09-07_08h47.37.688,tareaTDv3,2020.2.5,Win32,60,,,left,1.0,3.1696,0.0,9.0,9.0,74.0,1.0,25000.0,0.0,150000.0,29.0,,
,,,,,,,,,,,,,,,,,,,,,,,07-09-2022,f483,2022-09-07_08h47.37.688,tareaTDv3,2020.2.5,Win32,60,,,left,1.0,3.2098,0.0,10.0,10.0,66.0,1.0,25000.0,0.0,55000.0,11.0,,
,,,,,,,,,,,,,,,,,,,,,,,07-09-2022,f483,2022-09-07_08h47.37.688,tareaTDv3,2020.2.5,Win32,60,,,left,0.0,6.9979,0.0,11.0,11.0,50.0,1.0,5000.0,0.0,15000.0,91.0,,
,,,,,,,,,,,,,,,,,,,,,,,07-09-2022,f483,2022-09-07_08h47.37.688,tareaTDv3,2020.2.5,Win32,60,,,left,1.0,4.2964,0.0,12.0,12.0,64.0,1.0,25000.0,0.0,150000.0,4.0,,
,,,,,,,,,,,,,,,,,,,,,,,07-09-2022,f483,2022-09-07_08h47.37.688,tareaTDv3,2020.2.5,Win32,60,,,right,0.0,2.8551,0.0,13.0,13.0,20.0,1.0,10000.0,0.0,20000.0,90.0,,
,,,,,,,,,,,,,,,,,,,,,,,07-09-2022,f483,2022-09-07_08h47.37.688,tareaTDv3,2020.2.5,Win32,60,,,right,1.0,1.6415,0.0,14.0,14.0,49.0,1.0,5000.0,0.0,149000.0,59.0,,
,,,,,,,,,,,,,,,,,,,,,,,07-09-2022,f483,2022-09-07_08h47.37.688,tareaTDv3,2020.2.5,Win32,60,,,left,1.0,2.7144,0.0,15.0,15.0,46.0,1.0,5000.0,0.0,36000.0,61.0,,
,,,,,,,,,,,,,,,,,,,,,,,07-09-2022,f483,2022-09-07_08h47.37.688,tareaTDv3,2020.2.5,Win32,60,,,left,1.0,2.5663,0.0,16.0,16.0,82.0,1.0,25000.0,0.0,75000.0,90.0,,
,,,,,,,,,,,,,,,,,,,,,,,07-09-2022,f483,2022-09-07_08h47.37.688,tareaTDv3,2020.2.5,Win32,60,,,left,1.0,2.2502,0.0,17.0,17.0,63.0,1.0,25000.0,0.0,125000.0,4.0,,
,,,,,,,,,,,,,,,,,,,,,,,07-09-2022,f483,2022-09-07_08h47.37.688,tareaTDv3,2020.2.5,Win32,60,,,left,1.0,2.6267,0.0,18.0,18.0,4.0,1.0,10000.0,0.0,150000.0,5.0,,
,,,,,,,,,,,,,,,,,,,,,,,07-09-2022,f483,2022-09-07_08h47.37.688,tareaTDv3,2020.2.5,Win32,60,,,right,1.0,1.8994,0.0,19.0,19.0,14.0,1.0,10000.0,0.0,150000.0,30.0,,
,,,,,,,,,,,,,,,,,,,,,,,07-09-2022,f483,2022-09-07_08h47.37.688,tareaTDv3,2020.2.5,Win32,60,,,left,1.0,2.1068,0.0,20.0,20.0,81.0,1.0,25000.0,0.0,55000.0,90.0,,
,,,,,,,,,,,,,,,,,,,,,,,07-09-2022,f483,2022-09-07_08h47.37.688,tareaTDv3,2020.2.5,Win32,60,,,left,1.0,1.2305,0.0,21.0,21.0,53.0,1.0,5000.0,0.0,104000.0,90.0,,
,,,,,,,,,,,,,,,,,,,,,,,07-09-2022,f483,2022-09-07_08h47.37.688,tareaTDv3,2020.2.5,Win32,60,,,left,1.0,2.115,0.0,22.0,22.0,3.0,1.0,10000.0,0.0,109000.0,5.0,,
,,,,,,,,,,,,,,,,,,,,,,,07-09-2022,f483,2022-09-07_08h47.37.688,tareaTDv3,2020.2.5,Win32,60,,,left,1.0,4.7487,0.0,23.0,23.0,84.0,1.0,25000.0,0.0,150000.0,89.0,,
,,,,,,,,,,,,,,,,,,,,,,,07-09-2022,f483,2022-09-07_08h47.37.688,tareaTDv3,2020.2.5,Win32,60,,,left,1.0,2.6611,0.0,24.0,24.0,28.0,1.0,10000.0,0.0,109000.0,149.0,,
,,,,,,,,,,,,,,,,,,,,,,,07-09-2022,f483,2022-09-07_08h47.37.688,tareaTDv3,2020.2.5,Win32,60,,,left,1.0,15.9997,0.0,25.0,25.0,32.0,1.0,5000.0,0.0,54000.0,5.0,,
,,,,,,,,,,,,,,,,,,,,,,,07-09-2022,f483,2022-09-07_08h47.37.688,tareaTDv3,2020.2.5,Win32,60,,,right,1.0,4.5763,0.0,26.0,26.0,45.0,1.0,5000.0,0.0,15000.0,61.0,,
,,,,,,,,,,,,,,,,,,,,,,,07-09-2022,f483,2022-09-07_08h47.37.688,tareaTDv3,2020.2.5,Win32,60,,,right,1.0,2.1339,0.0,27.0,27.0,51.0,1.0,5000.0,0.0,35000.0,89.0,,
,,,,,,,,,,,,,,,,,,,,,,,07-09-2022,f483,2022-09-07_08h47.37.688,tareaTDv3,2020.2.5,Win32,60,,,left,1.0,1.9641,0.0,28.0,28.0,22.0,1.0,10000.0,0.0,61000.0,89.0,,
,,,,,,,,,,,,,,,,,,,,,,,07-09-2022,f483,2022-09-07_08h47.37.688,tareaTDv3,2020.2.5,Win32,60,,,left,1.0,5.9111,0.0,29.0,29.0,89.0,1.0,25000.0,0.0,150000.0,150.0,,
,,,,,,,,,,,,,,,,,,,,,,,07-09-2022,f483,2022-09-07_08h47.37.688,tareaTDv3,2020.2.5,Win32,60,,,left,1.0,2.6832,0.0,30.0,30.0,11.0,1.0,10000.0,0.0,39000.0,29.0,,
,,,,,,,,,,,,,,,,,,,,,,,07-09-2022,f483,2022-09-07_08h47.37.688,tareaTDv3,2020.2.5,Win32,60,,,left,1.0,3.4174,0.0,31.0,31.0,39.0,1.0,5000.0,0.0,149000.0,10.0,,
,,,,,,,,,,,,,,,,,,,,,,,07-09-2022,f483,2022-09-07_08h47.37.688,tareaTDv3,2020.2.5,Win32,60,,,left,1.0,3.7612,0.0,32.0,32.0,43.0,1.0,5000.0,0.0,106000.0,29.0,,
,,,,,,,,,,,,,,,,,,,,,,,07-09-2022,f483,2022-09-07_08h47.37.688,tareaTDv3,2020.2.5,Win32,60,,,right,1.0,4.2482,0.0,33.0,33.0,59.0,1.0,5000.0,0.0,151000.0,150.0,,
,,,,,,,,,,,,,,,,,,,,,,,07-09-2022,f483,2022-09-07_08h47.37.688,tareaTDv3,2020.2.5,Win32,60,,,right,1.0,1.2363,0.0,34.0,34.0,76.0,1.0,25000.0,0.0,55000.0,60.0,,
,,,,,,,,,,,,,,,,,,,,,,,07-09-2022,f483,2022-09-07_08h47.37.688,tareaTDv3,2020.2.5,Win32,60,,,right,1.0,1.4093,0.0,35.0,35.0,19.0,1.0,10000.0,0.0,149000.0,61.0,,
,,,,,,,,,,,,,,,,,,,,,,,07-09-2022,f483,2022-09-07_08h47.37.688,tareaTDv3,2020.2.5,Win32,60,,,right,1.0,1.2592,0.0,36.0,36.0,40.0,1.0,5000.0,0.0,14000.0,31.0,,
,,,,,,,,,,,,,,,,,,,,,,,07-09-2022,f483,2022-09-07_08h47.37.688,tareaTDv3,2020.2.5,Win32,60,,,left,1.0,2.2784,0.0,37.0,37.0,69.0,1.0,25000.0,0.0,150000.0,9.0,,
,,,,,,,,,,,,,,,,,,,,,,,07-09-2022,f483,2022-09-07_08h47.37.688,tareaTDv3,2020.2.5,Win32,60,,,right,1.0,1.3449,0.0,38.0,38.0,35.0,1.0,5000.0,0.0,15000.0,11.0,,
,,,,,,,,,,,,,,,,,,,,,,,07-09-2022,f483,2022-09-07_08h47.37.688,tareaTDv3,2020.2.5,Win32,60,,,right,1.0,2.8923,0.0,39.0,39.0,41.0,1.0,5000.0,0.0,35000.0,31.0,,
,,,,,,,,,,,,,,,,,,,,,,,07-09-2022,f483,2022-09-07_08h47.37.688,tareaTDv3,2020.2.5,Win32,60,,,right,1.0,1.0445,0.0,40.0,40.0,8.0,1.0,10000.0,0.0,111000.0,10.0,,
,,,,,,,,,,,,,,,,,,,,,,,07-09-2022,f483,2022-09-07_08h47.37.688,tareaTDv3,2020.2.5,Win32,60,,,left,1.0,0.9401,0.0,41.0,41.0,24.0,1.0,10000.0,0.0,149000.0,89.0,,
,,,,,,,,,,,,,,,,,,,,,,,07-09-2022,f483,2022-09-07_08h47.37.688,tareaTDv3,2020.2.5,Win32,60,,,left,1.0,6.8885,0.0,42.0,42.0,17.0,1.0,10000.0,0.0,60000.0,60.0,,
,,,,,,,,,,,,,,,,,,,,,,,07-09-2022,f483,2022-09-07_08h47.37.688,tareaTDv3,2020.2.5,Win32,60,,,left,1.0,1.7203,0.0,43.0,43.0,42.0,1.0,5000.0,0.0,56000.0,29.0,,
,,,,,,,,,,,,,,,,,,,,,,,07-09-2022,f483,2022-09-07_08h47.37.688,tareaTDv3,2020.2.5,Win32,60,,,left,1.0,2.6228,0.0,44.0,44.0,30.0,1.0,5000.0,0.0,16000.0,4.0,,
,,,,,,,,,,,,,,,,,,,,,,,07-09-2022,f483,2022-09-07_08h47.37.688,tareaTDv3,2020.2.5,Win32,60,,,left,1.0,0.6663,0.0,45.0,45.0,38.0,1.0,5000.0,0.0,104000.0,10.0,,
,,,,,,,,,,,,,,,,,,,,,,,07-09-2022,f483,2022-09-07_08h47.37.688,tareaTDv3,2020.2.5,Win32,60,,,right,1.0,1.0959,0.0,46.0,46.0,62.0,1.0,25000.0,0.0,75000.0,5.0,,
,,,,,,,,,,,,,,,,,,,,,,,07-09-2022,f483,2022-09-07_08h47.37.688,tareaTDv3,2020.2.5,Win32,60,,,left,1.0,1.6383,0.0,47.0,47.0,37.0,1.0,5000.0,0.0,56000.0,9.0,,
,,,,,,,,,,,,,,,,,,,,,,,07-09-2022,f483,2022-09-07_08h47.37.688,tareaTDv3,2020.2.5,Win32,60,,,left,1.0,0.7995,0.0,48.0,48.0,44.0,1.0,5000.0,0.0,150000.0,30.0,,
,,,,,,,,,,,,,,,,,,,,,,,07-09-2022,f483,2022-09-07_08h47.37.688,tareaTDv3,2020.2.5,Win32,60,,,left,1.0,10.4376,0.0,49.0,49.0,58.0,1.0,5000.0,0.0,106000.0,152.0,,
,,,,,,,,,,,,,,,,,,,,,,,07-09-2022,f483,2022-09-07_08h47.37.688,tareaTDv3,2020.2.5,Win32,60,,,right,1.0,1.1222,0.0,50.0,50.0,67.0,1.0,25000.0,0.0,75000.0,10.0,,
,,,,,,,,,,,,,,,,,,,,,,,07-09-2022,f483,2022-09-07_08h47.37.688,tareaTDv3,2020.2.5,Win32,60,,,left,0.0,2.4901,0.0,51.0,51.0,85.0,1.0,25000.0,0.0,35000.0,150.0,,
,,,,,,,,,,,,,,,,,,,,,,,07-09-2022,f483,2022-09-07_08h47.37.688,tareaTDv3,2020.2.5,Win32,60,,,left,1.0,2.3066,0.0,52.0,52.0,72.0,1.0,25000.0,0.0,75000.0,31.0,,
,,,,,,,,,,,,,,,,,,,,,,,07-09-2022,f483,2022-09-07_08h47.37.688,tareaTDv3,2020.2.5,Win32,60,,,right,1.0,1.3662,0.0,53.0,53.0,2.0,1.0,10000.0,0.0,61000.0,4.0,,
,,,,,,,,,,,,,,,,,,,,,,,07-09-2022,f483,2022-09-07_08h47.37.688,tareaTDv3,2020.2.5,Win32,60,,,right,1.0,0.9108,0.0,54.0,54.0,33.0,1.0,5000.0,0.0,104000.0,5.0,,
,,,,,,,,,,,,,,,,,,,,,,,07-09-2022,f483,2022-09-07_08h47.37.688,tareaTDv3,2020.2.5,Win32,60,,,right,1.0,1.7887,0.0,55.0,55.0,5.0,1.0,10000.0,0.0,19000.0,11.0,,
,,,,,,,,,,,,,,,,,,,,,,,07-09-2022,f483,2022-09-07_08h47.37.688,tareaTDv3,2020.2.5,Win32,60,,,right,1.0,2.4146,0.0,56.0,56.0,73.0,1.0,25000.0,0.0,125000.0,31.0,,
,,,,,,,,,,,,,,,,,,,,,,,07-09-2022,f483,2022-09-07_08h47.37.688,tareaTDv3,2020.2.5,Win32,60,,,left,0.0,1.9151,0.0,57.0,57.0,26.0,1.0,10000.0,0.0,39000.0,150.0,,
,,,,,,,,,,,,,,,,,,,,,,,07-09-2022,f483,2022-09-07_08h47.37.688,tareaTDv3,2020.2.5,Win32,60,,,right,1.0,0.5011,0.0,58.0,58.0,54.0,1.0,5000.0,0.0,150000.0,90.0,,
,,,,,,,,,,,,,,,,,,,,,,,07-09-2022,f483,2022-09-07_08h47.37.688,tareaTDv3,2020.2.5,Win32,60,,,left,1.0,1.5469,0.0,59.0,59.0,31.0,1.0,5000.0,0.0,35000.0,6.0,,
,,,,,,,,,,,,,,,,,,,,,,,07-09-2022,f483,2022-09-07_08h47.37.688,tareaTDv3,2020.2.5,Win32,60,,,left,1.0,0.7613,0.0,60.0,60.0,68.0,1.0,25000.0,0.0,125000.0,9.0,,
,,,,,,,,,,,,,,,,,,,,,,,07-09-2022,f483,2022-09-07_08h47.37.688,tareaTDv3,2020.2.5,Win32,60,,,right,1.0,1.3684,0.0,61.0,61.0,12.0,1.0,10000.0,0.0,60000.0,29.0,,
,,,,,,,,,,,,,,,,,,,,,,,07-09-2022,f483,2022-09-07_08h47.37.688,tareaTDv3,2020.2.5,Win32,60,,,left,1.0,2.0577,0.0,62.0,62.0,23.0,1.0,10000.0,0.0,110000.0,90.0,,
,,,,,,,,,,,,,,,,,,,,,,,07-09-2022,f483,2022-09-07_08h47.37.688,tareaTDv3,2020.2.5,Win32,60,,,left,0.0,1.9151,0.0,63.0,63.0,70.0,1.0,25000.0,0.0,35000.0,30.0,,
,,,,,,,,,,,,,,,,,,,,,,,07-09-2022,f483,2022-09-07_08h47.37.688,tareaTDv3,2020.2.5,Win32,60,,,right,1.0,1.4951,0.0,64.0,64.0,78.0,1.0,25000.0,0.0,125000.0,59.0,,
,,,,,,,,,,,,,,,,,,,,,,,07-09-2022,f483,2022-09-07_08h47.37.688,tareaTDv3,2020.2.5,Win32,60,,,left,1.0,8.2837,0.0,65.0,65.0,29.0,1.0,10000.0,0.0,151000.0,151.0,,
,,,,,,,,,,,,,,,,,,,,,,,07-09-2022,f483,2022-09-07_08h47.37.688,tareaTDv3,2020.2.5,Win32,60,,,right,1.0,1.1188,0.0,66.0,66.0,36.0,1.0,5000.0,0.0,36000.0,9.0,,
,,,,,,,,,,,,,,,,,,,,,,,07-09-2022,f483,2022-09-07_08h47.37.688,tareaTDv3,2020.2.5,Win32,60,,,left,1.0,0.855,0.0,67.0,67.0,48.0,1.0,5000.0,0.0,105000.0,60.0,,
,,,,,,,,,,,,,,,,,,,,,,,07-09-2022,f483,2022-09-07_08h47.37.688,tareaTDv3,2020.2.5,Win32,60,,,right,1.0,1.1922,0.0,68.0,68.0,25.0,1.0,10000.0,0.0,10000.0,150.0,,
,,,,,,,,,,,,,,,,,,,,,,,07-09-2022,f483,2022-09-07_08h47.37.688,tareaTDv3,2020.2.5,Win32,60,,,right,1.0,1.479,0.0,69.0,69.0,61.0,1.0,25000.0,0.0,55000.0,6.0,,
,,,,,,,,,,,,,,,,,,,,,,,07-09-2022,f483,2022-09-07_08h47.37.688,tareaTDv3,2020.2.5,Win32,60,,,right,1.0,1.0029,0.0,70.0,70.0,6.0,1.0,10000.0,0.0,40000.0,10.0,,
,,,,,,,,,,,,,,,,,,,,,,,07-09-2022,f483,2022-09-07_08h47.37.688,tareaTDv3,2020.2.5,Win32,60,,,left,1.0,2.5574,0.0,71.0,71.0,80.0,1.0,25000.0,0.0,35000.0,90.0,,
,,,,,,,,,,,,,,,,,,,,,,,07-09-2022,f483,2022-09-07_08h47.37.688,tareaTDv3,2020.2.5,Win32,60,,,left,1.0,2.1923,0.0,72.0,72.0,15.0,1.0,10000.0,0.0,20000.0,59.0,,
,,,,,,,,,,,,,,,,,,,,,,,07-09-2022,f483,2022-09-07_08h47.37.688,tareaTDv3,2020.2.5,Win32,60,,,left,1.0,4.596,0.0,73.0,73.0,10.0,1.0,10000.0,0.0,21000.0,31.0,,
,,,,,,,,,,,,,,,,,,,,,,,07-09-2022,f483,2022-09-07_08h47.37.688,tareaTDv3,2020.2.5,Win32,60,,,left,0.0,3.9902,0.0,74.0,74.0,27.0,1.0,10000.0,0.0,61000.0,150.0,,
,,,,,,,,,,,,,,,,,,,,,,,07-09-2022,f483,2022-09-07_08h47.37.688,tareaTDv3,2020.2.5,Win32,60,,,left,1.0,3.2038,0.0,75.0,75.0,1.0,1.0,10000.0,0.0,39000.0,6.0,,
,,,,,,,,,,,,,,,,,,,,,,,07-09-2022,f483,2022-09-07_08h47.37.688,tareaTDv3,2020.2.5,Win32,60,,,left,1.0,7.0432,0.0,76.0,76.0,18.0,1.0,10000.0,0.0,110000.0,60.0,,
,,,,,,,,,,,,,,,,,,,,,,,07-09-2022,f483,2022-09-07_08h47.37.688,tareaTDv3,2020.2.5,Win32,60,,,left,0.0,2.4854,0.0,77.0,77.0,83.0,1.0,25000.0,0.0,125000.0,89.0,,
,,,,,,,,,,,,,,,,,,,,,,,07-09-2022,f483,2022-09-07_08h47.37.688,tareaTDv3,2020.2.5,Win32,60,,,right,0.0,1.5317,0.0,78.0,78.0,71.0,1.0,25000.0,0.0,55000.0,30.0,,
,,,,,,,,,,,,,,,,,,,,,,,07-09-2022,f483,2022-09-07_08h47.37.688,tareaTDv3,2020.2.5,Win32,60,,,left,1.0,2.1981,0.0,79.0,79.0,56.0,1.0,5000.0,0.0,35000.0,150.0,,
,,,,,,,,,,,,,,,,,,,,,,,07-09-2022,f483,2022-09-07_08h47.37.688,tareaTDv3,2020.2.5,Win32,60,,,left,0.0,0.9322,0.0,80.0,80.0,87.0,1.0,25000.0,0.0,75000.0,151.0,,
,,,,,,,,,,,,,,,,,,,,,,,07-09-2022,f483,2022-09-07_08h47.37.688,tareaTDv3,2020.2.5,Win32,60,,,right,0.0,1.5056,0.0,81.0,81.0,75.0,1.0,25000.0,0.0,35000.0,60.0,,
,,,,,,,,,,,,,,,,,,,,,,,07-09-2022,f483,2022-09-07_08h47.37.688,tareaTDv3,2020.2.5,Win32,60,,,right,0.0,4.8602,0.0,82.0,82.0,21.0,1.0,10000.0,0.0,40000.0,91.0,,
,,,,,,,,,,,,,,,,,,,,,,,07-09-2022,f483,2022-09-07_08h47.37.688,tareaTDv3,2020.2.5,Win32,60,,,left,0.0,0.4164,0.0,83.0,83.0,60.0,1.0,25000.0,0.0,35000.0,5.0,,
,,,,,,,,,,,,,,,,,,,,,,,07-09-2022,f483,2022-09-07_08h47.37.688,tareaTDv3,2020.2.5,Win32,60,,,left,0.0,0.3596,0.0,84.0,84.0,77.0,1.0,25000.0,0.0,75000.0,59.0,,
,,,,,,,,,,,,,,,,,,,,,,,07-09-2022,f483,2022-09-07_08h47.37.688,tareaTDv3,2020.2.5,Win32,60,,,right,0.0,0.0578,0.0,85.0,85.0,0.0,1.0,10000.0,0.0,20000.0,5.0,,
,,,,,,,,,,,,,,,,,,,,,,,07-09-2022,f483,2022-09-07_08h47.37.688,tareaTDv3,2020.2.5,Win32,60,,,right,1.0,1.2957,0.0,86.0,86.0,7.0,1.0,10000.0,0.0,59000.0,9.0,,
,,,,,,,,,,,,,,,,,,,,,,,07-09-2022,f483,2022-09-07_08h47.37.688,tareaTDv3,2020.2.5,Win32,60,,,right,1.0,1.363,0.0,87.0,87.0,34.0,1.0,5000.0,0.0,151000.0,4.0,,
,,,,,,,,,,,,,,,,,,,,,,,07-09-2022,f483,2022-09-07_08h47.37.688,tareaTDv3,2020.2.5,Win32,60,,,left,1.0,1.0143,0.0,88.0,88.0,9.0,1.0,10000.0,0.0,151000.0,11.0,,
,,,,,,,,,,,,,,,,,,,,,,,07-09-2022,f483,2022-09-07_08h47.37.688,tareaTDv3,2020.2.5,Win32,60,,,right,0.0,0.4752,0.0,89.0,89.0,13.0,1.0,10000.0,0.0,111000.0,30.0,,
,,,,,,,,,,,,,,,,,,,,,,,07-09-2022,f483,2022-09-07_08h47.37.688,tareaTDv3,2020.2.5,Win32,60,,,,,,,,,,,,,,,right,1.0338
