ssAmount,llAmount,llDelay,ss_am,ss_del,ll_am,ll_del,Practice.thisRepN,Practice.thisTrialN,Practice.thisN,Practice.thisIndex,trials.thisRepN,trials.thisTrialN,trials.thisN,trials.thisIndex,key1.keys,key1.rt,key2.keys,key2.rt,key2_2.keys,key2_2.rt,key2_3.keys,key2_3.rt,key3.keys,key3.rt,key4.keys,key4.rt,respP.keys,respP.corr,respP.rt,key5.keys,key5.rt,respT.keys,respT.corr,respT.rt,session,psychopyVersion,frameRate,expName,date,participant,
,,,,,,,,,,,,,,,space,79.0851009581,,,,,,,,,,,,,,,,,,,001,3.0.3,60.034780628739156,ninosDelConv2,2019_May_09_0757,114,
,,,,,,,,,,,,,,,,,space,25.9291507332,,,,,,,,,,,,,,,,,001,3.0.3,60.034780628739156,ninosDelConv2,2019_May_09_0757,114,
,,,,,,,,,,,,,,,,,,,space,9.09891775763,,,,,,,,,,,,,,,001,3.0.3,60.034780628739156,ninosDelConv2,2019_May_09_0757,114,
,,,,,,,,,,,,,,,,,,,,,space,5.98305619741,,,,,,,,,,,,,001,3.0.3,60.034780628739156,ninosDelConv2,2019_May_09_0757,114,
,,,,,,,,,,,,,,,,,,,,,,,right,6.51581827691,,,,,,,,,,,001,3.0.3,60.034780628739156,ninosDelConv2,2019_May_09_0757,114,
,,,,,,,,,,,,,,,,,,,,,,,,,space,1.65236545494,,,,,,,,,001,3.0.3,60.034780628739156,ninosDelConv2,2019_May_09_0757,114,
25,35,150,,,,,0,0,0,1,,,,,,,,,,,,,,,,,left,0,4.18258758355,,,,,,001,3.0.3,60.034780628739156,ninosDelConv2,2019_May_09_0757,114,
10,109,9,,,,,0,1,1,0,,,,,,,,,,,,,,,,,left,1,3.93309765588,,,,,,001,3.0.3,60.034780628739156,ninosDelConv2,2019_May_09_0757,114,
10,19,89,,,,,0,2,2,2,,,,,,,,,,,,,,,,,left,0,3.56592229614,,,,,,001,3.0.3,60.034780628739156,ninosDelConv2,2019_May_09_0757,114,
,,,,,,,,,,,,,,,,,,,,,,,,,,,,,,g,35.528649631,,,,001,3.0.3,60.034780628739156,ninosDelConv2,2019_May_09_0757,114,
,,,25,0,125.0,149,,,,,0,0,0,88,,,,,,,,,,,,,,,,,,right,0,8.98244395666,001,3.0.3,60.034780628739156,ninosDelConv2,2019_May_09_0757,114,
,,,25,0,35.0,5,,,,,0,1,1,60,,,,,,,,,,,,,,,,,,right,1,6.11618078966,001,3.0.3,60.034780628739156,ninosDelConv2,2019_May_09_0757,114,
,,,10,0,150.0,30,,,,,0,2,2,14,,,,,,,,,,,,,,,,,,right,1,3.66706077661,001,3.0.3,60.034780628739156,ninosDelConv2,2019_May_09_0757,114,
,,,5,0,15.0,61,,,,,0,3,3,45,,,,,,,,,,,,,,,,,,left,0,4.94967545057,001,3.0.3,60.034780628739156,ninosDelConv2,2019_May_09_0757,114,
,,,10,0,39.0,150,,,,,0,4,4,26,,,,,,,,,,,,,,,,,,left,0,5.66633801349,001,3.0.3,60.034780628739156,ninosDelConv2,2019_May_09_0757,114,
,,,10,0,110.0,90,,,,,0,5,5,23,,,,,,,,,,,,,,,,,,left,1,5.41627182858,001,3.0.3,60.034780628739156,ninosDelConv2,2019_May_09_0757,114,
,,,25,0,75.0,5,,,,,0,6,6,62,,,,,,,,,,,,,,,,,,left,1,12.1482799938,001,3.0.3,60.034780628739156,ninosDelConv2,2019_May_09_0757,114,
,,,25,0,150.0,29,,,,,0,7,7,74,,,,,,,,,,,,,,,,,,left,1,2.09922927571,001,3.0.3,60.034780628739156,ninosDelConv2,2019_May_09_0757,114,
,,,5,0,104.0,10,,,,,0,8,8,38,,,,,,,,,,,,,,,,,,left,1,8.2150420011,001,3.0.3,60.034780628739156,ninosDelConv2,2019_May_09_0757,114,
,,,25,0,55.0,30,,,,,0,9,9,71,,,,,,,,,,,,,,,,,,left,0,6.7328111208,001,3.0.3,60.034780628739156,ninosDelConv2,2019_May_09_0757,114,
,,,10,0,61.0,89,,,,,0,10,10,22,,,,,,,,,,,,,,,,,,right,0,5.83464768901,001,3.0.3,60.034780628739156,ninosDelConv2,2019_May_09_0757,114,
,,,10,0,111.0,30,,,,,0,11,11,13,,,,,,,,,,,,,,,,,,left,1,1.89988860441,001,3.0.3,60.034780628739156,ninosDelConv2,2019_May_09_0757,114,
,,,10,0,151.0,11,,,,,0,12,12,9,,,,,,,,,,,,,,,,,,left,1,1.83304691873,001,3.0.3,60.034780628739156,ninosDelConv2,2019_May_09_0757,114,
,,,10,0,61.0,150,,,,,0,13,13,27,,,,,,,,,,,,,,,,,,left,0,3.45015378017,001,3.0.3,60.034780628739156,ninosDelConv2,2019_May_09_0757,114,
,,,25,0,35.0,60,,,,,0,14,14,75,,,,,,,,,,,,,,,,,,right,0,3.94869308919,001,3.0.3,60.034780628739156,ninosDelConv2,2019_May_09_0757,114,
,,,25,0,55.0,151,,,,,0,15,15,86,,,,,,,,,,,,,,,,,,right,0,2.66642129049,001,3.0.3,60.034780628739156,ninosDelConv2,2019_May_09_0757,114,
,,,25,0,125.0,4,,,,,0,16,16,63,,,,,,,,,,,,,,,,,,left,1,3.55062295869,001,3.0.3,60.034780628739156,ninosDelConv2,2019_May_09_0757,114,
,,,25,0,55.0,90,,,,,0,17,17,81,,,,,,,,,,,,,,,,,,left,0,10.7985624936,001,3.0.3,60.034780628739156,ninosDelConv2,2019_May_09_0757,114,
,,,5,0,54.0,5,,,,,0,18,18,32,,,,,,,,,,,,,,,,,,left,1,2.58353899885,001,3.0.3,60.034780628739156,ninosDelConv2,2019_May_09_0757,114,
,,,25,0,75.0,10,,,,,0,19,19,67,,,,,,,,,,,,,,,,,,left,0,8.1993041737,001,3.0.3,60.034780628739156,ninosDelConv2,2019_May_09_0757,114,
,,,10,0,149.0,89,,,,,0,20,20,24,,,,,,,,,,,,,,,,,,right,1,4.95081254281,001,3.0.3,60.034780628739156,ninosDelConv2,2019_May_09_0757,114,
,,,25,0,150.0,89,,,,,0,21,21,84,,,,,,,,,,,,,,,,,,right,1,2.11685934337,001,3.0.3,60.034780628739156,ninosDelConv2,2019_May_09_0757,114,
,,,25,0,125.0,59,,,,,0,22,22,78,,,,,,,,,,,,,,,,,,left,1,2.1341712107,001,3.0.3,60.034780628739156,ninosDelConv2,2019_May_09_0757,114,
,,,25,0,55.0,11,,,,,0,23,23,66,,,,,,,,,,,,,,,,,,right,0,4.23265818926,001,3.0.3,60.034780628739156,ninosDelConv2,2019_May_09_0757,114,
,,,10,0,40.0,91,,,,,0,24,24,21,,,,,,,,,,,,,,,,,,left,0,3.66574068042,001,3.0.3,60.034780628739156,ninosDelConv2,2019_May_09_0757,114,
,,,5,0,56.0,9,,,,,0,25,25,37,,,,,,,,,,,,,,,,,,right,1,4.88299260847,001,3.0.3,60.034780628739156,ninosDelConv2,2019_May_09_0757,114,
,,,25,0,75.0,90,,,,,0,26,26,82,,,,,,,,,,,,,,,,,,left,0,1.59988084203,001,3.0.3,60.034780628739156,ninosDelConv2,2019_May_09_0757,114,
,,,5,0,56.0,29,,,,,0,27,27,42,,,,,,,,,,,,,,,,,,right,1,7.04873663001,001,3.0.3,60.034780628739156,ninosDelConv2,2019_May_09_0757,114,
,,,5,0,56.0,89,,,,,0,28,28,52,,,,,,,,,,,,,,,,,,right,0,10.0481166784,001,3.0.3,60.034780628739156,ninosDelConv2,2019_May_09_0757,114,
,,,5,0,15.0,11,,,,,0,29,29,35,,,,,,,,,,,,,,,,,,right,0,5.31665032823,001,3.0.3,60.034780628739156,ninosDelConv2,2019_May_09_0757,114,
,,,25,0,35.0,30,,,,,0,30,30,70,,,,,,,,,,,,,,,,,,left,0,5.8164423923,001,3.0.3,60.034780628739156,ninosDelConv2,2019_May_09_0757,114,
,,,5,0,151.0,4,,,,,0,31,31,34,,,,,,,,,,,,,,,,,,right,1,2.10052572517,001,3.0.3,60.034780628739156,ninosDelConv2,2019_May_09_0757,114,
,,,5,0,55.0,151,,,,,0,32,32,57,,,,,,,,,,,,,,,,,,right,0,2.31634446513,001,3.0.3,60.034780628739156,ninosDelConv2,2019_May_09_0757,114,
,,,5,0,35.0,89,,,,,0,33,33,51,,,,,,,,,,,,,,,,,,right,0,1.81709987018,001,3.0.3,60.034780628739156,ninosDelConv2,2019_May_09_0757,114,
,,,25,0,55.0,60,,,,,0,34,34,76,,,,,,,,,,,,,,,,,,left,0,1.98335743416,001,3.0.3,60.034780628739156,ninosDelConv2,2019_May_09_0757,114,
,,,25,0,150.0,4,,,,,0,35,35,64,,,,,,,,,,,,,,,,,,right,1,1.58408903843,001,3.0.3,60.034780628739156,ninosDelConv2,2019_May_09_0757,114,
,,,5,0,35.0,31,,,,,0,36,36,41,,,,,,,,,,,,,,,,,,left,0,4.13333175704,001,3.0.3,60.034780628739156,ninosDelConv2,2019_May_09_0757,114,
,,,10,0,60.0,60,,,,,0,37,37,17,,,,,,,,,,,,,,,,,,left,1,4.55028316798,001,3.0.3,60.034780628739156,ninosDelConv2,2019_May_09_0757,114,
,,,10,0,19.0,11,,,,,0,38,38,5,,,,,,,,,,,,,,,,,,right,0,5.09863965353,001,3.0.3,60.034780628739156,ninosDelConv2,2019_May_09_0757,114,
,,,25,0,125.0,89,,,,,0,39,39,83,,,,,,,,,,,,,,,,,,right,0,5.16583655169,001,3.0.3,60.034780628739156,ninosDelConv2,2019_May_09_0757,114,
,,,10,0,111.0,10,,,,,0,40,40,8,,,,,,,,,,,,,,,,,,right,1,4.54949614825,001,3.0.3,60.034780628739156,ninosDelConv2,2019_May_09_0757,114,
,,,5,0,56.0,60,,,,,0,41,41,47,,,,,,,,,,,,,,,,,,left,1,3.24988266686,001,3.0.3,60.034780628739156,ninosDelConv2,2019_May_09_0757,114,
,,,10,0,39.0,6,,,,,0,42,42,1,,,,,,,,,,,,,,,,,,right,1,8.48265189212,001,3.0.3,60.034780628739156,ninosDelConv2,2019_May_09_0757,114,
,,,10,0,21.0,31,,,,,0,43,43,10,,,,,,,,,,,,,,,,,,right,0,3.08332540793,001,3.0.3,60.034780628739156,ninosDelConv2,2019_May_09_0757,114,
,,,25,0,35.0,11,,,,,0,44,44,65,,,,,,,,,,,,,,,,,,left,0,3.33270995505,001,3.0.3,60.034780628739156,ninosDelConv2,2019_May_09_0757,114,
,,,5,0,16.0,4,,,,,0,45,45,30,,,,,,,,,,,,,,,,,,left,1,5.68206607364,001,3.0.3,60.034780628739156,ninosDelConv2,2019_May_09_0757,114,
,,,10,0,20.0,59,,,,,0,46,46,15,,,,,,,,,,,,,,,,,,left,0,4.51639350597,001,3.0.3,60.034780628739156,ninosDelConv2,2019_May_09_0757,114,
,,,25,0,35.0,150,,,,,0,47,47,85,,,,,,,,,,,,,,,,,,left,0,9.68172114203,001,3.0.3,60.034780628739156,ninosDelConv2,2019_May_09_0757,114,
,,,10,0,20.0,90,,,,,0,48,48,20,,,,,,,,,,,,,,,,,,left,0,1.54970948119,001,3.0.3,60.034780628739156,ninosDelConv2,2019_May_09_0757,114,
,,,10,0,149.0,61,,,,,0,49,49,19,,,,,,,,,,,,,,,,,,left,1,2.84958821535,001,3.0.3,60.034780628739156,ninosDelConv2,2019_May_09_0757,114,
,,,10,0,109.0,149,,,,,0,50,50,28,,,,,,,,,,,,,,,,,,right,1,3.85052122734,001,3.0.3,60.034780628739156,ninosDelConv2,2019_May_09_0757,114,
,,,25,0,150.0,61,,,,,0,51,51,79,,,,,,,,,,,,,,,,,,right,0,6.54931108747,001,3.0.3,60.034780628739156,ninosDelConv2,2019_May_09_0757,114,
,,,5,0,149.0,59,,,,,0,52,52,49,,,,,,,,,,,,,,,,,,left,1,2.50004960643,001,3.0.3,60.034780628739156,ninosDelConv2,2019_May_09_0757,114,
,,,5,0,106.0,29,,,,,0,53,53,43,,,,,,,,,,,,,,,,,,left,1,2.44993993267,001,3.0.3,60.034780628739156,ninosDelConv2,2019_May_09_0757,114,
,,,10,0,10.01,150,,,,,0,54,54,25,,,,,,,,,,,,,,,,,,right,0,10.7481670049,001,3.0.3,60.034780628739156,ninosDelConv2,2019_May_09_0757,114,
,,,25,0,35.0,90,,,,,0,55,55,80,,,,,,,,,,,,,,,,,,left,0,2.48256193195,001,3.0.3,60.034780628739156,ninosDelConv2,2019_May_09_0757,114,
,,,10,0,40.0,10,,,,,0,56,56,6,,,,,,,,,,,,,,,,,,right,0,9.83139371406,001,3.0.3,60.034780628739156,ninosDelConv2,2019_May_09_0757,114,
,,,5,0,14.0,149,,,,,0,57,57,55,,,,,,,,,,,,,,,,,,right,0,1.90042065224,001,3.0.3,60.034780628739156,ninosDelConv2,2019_May_09_0757,114,
,,,25,0,75.0,31,,,,,0,58,58,72,,,,,,,,,,,,,,,,,,left,1,5.46528759133,001,3.0.3,60.034780628739156,ninosDelConv2,2019_May_09_0757,114,
,,,10,0,59.0,9,,,,,0,59,59,7,,,,,,,,,,,,,,,,,,left,1,3.76676349761,001,3.0.3,60.034780628739156,ninosDelConv2,2019_May_09_0757,114,
,,,5,0,14.0,31,,,,,0,60,60,40,,,,,,,,,,,,,,,,,,left,0,13.3640982197,001,3.0.3,60.034780628739156,ninosDelConv2,2019_May_09_0757,114,
,,,10,0,39.0,29,,,,,0,61,61,11,,,,,,,,,,,,,,,,,,right,1,6.24955264293,001,3.0.3,60.034780628739156,ninosDelConv2,2019_May_09_0757,114,
,,,10,0,20.0,5,,,,,0,62,62,0,,,,,,,,,,,,,,,,,,left,0,2.9834386548,001,3.0.3,60.034780628739156,ninosDelConv2,2019_May_09_0757,114,
,,,5,0,149.0,10,,,,,0,63,63,39,,,,,,,,,,,,,,,,,,left,1,3.01663896767,001,3.0.3,60.034780628739156,ninosDelConv2,2019_May_09_0757,114,
,,,5,0,151.0,150,,,,,0,64,64,59,,,,,,,,,,,,,,,,,,left,1,8.51546306442,001,3.0.3,60.034780628739156,ninosDelConv2,2019_May_09_0757,114,
,,,25,0,55.0,6,,,,,0,65,65,61,,,,,,,,,,,,,,,,,,right,1,5.15042000962,001,3.0.3,60.034780628739156,ninosDelConv2,2019_May_09_0757,114,
,,,10,0,60.0,29,,,,,0,66,66,12,,,,,,,,,,,,,,,,,,right,1,2.49992057867,001,3.0.3,60.034780628739156,ninosDelConv2,2019_May_09_0757,114,
,,,5,0,36.0,61,,,,,0,67,67,46,,,,,,,,,,,,,,,,,,left,1,3.49941680348,001,3.0.3,60.034780628739156,ninosDelConv2,2019_May_09_0757,114,
,,,10,0,109.0,5,,,,,0,68,68,3,,,,,,,,,,,,,,,,,,right,1,1.04972567409,001,3.0.3,60.034780628739156,ninosDelConv2,2019_May_09_0757,114,
,,,5,0,36.0,9,,,,,0,69,69,36,,,,,,,,,,,,,,,,,,right,1,12.9481733791,001,3.0.3,60.034780628739156,ninosDelConv2,2019_May_09_0757,114,
,,,25,0,125.0,9,,,,,0,70,70,68,,,,,,,,,,,,,,,,,,left,1,5.8822235805,001,3.0.3,60.034780628739156,ninosDelConv2,2019_May_09_0757,114,
,,,5,0,35.0,150,,,,,0,71,71,56,,,,,,,,,,,,,,,,,,left,0,6.34935714677,001,3.0.3,60.034780628739156,ninosDelConv2,2019_May_09_0757,114,
,,,5,0,105.0,60,,,,,0,72,72,48,,,,,,,,,,,,,,,,,,left,1,3.30005813995,001,3.0.3,60.034780628739156,ninosDelConv2,2019_May_09_0757,114,
,,,5,0,150.0,30,,,,,0,73,73,44,,,,,,,,,,,,,,,,,,left,1,3.43318273174,001,3.0.3,60.034780628739156,ninosDelConv2,2019_May_09_0757,114,
,,,25,0,125.0,31,,,,,0,74,74,73,,,,,,,,,,,,,,,,,,left,1,1.73366034124,001,3.0.3,60.034780628739156,ninosDelConv2,2019_May_09_0757,114,
,,,25,0,150.0,150,,,,,0,75,75,89,,,,,,,,,,,,,,,,,,left,0,7.86569976155,001,3.0.3,60.034780628739156,ninosDelConv2,2019_May_09_0757,114,
,,,25,0,75.0,151,,,,,0,76,76,87,,,,,,,,,,,,,,,,,,right,1,1.10058124363,001,3.0.3,60.034780628739156,ninosDelConv2,2019_May_09_0757,114,
,,,5,0,106.0,152,,,,,0,77,77,58,,,,,,,,,,,,,,,,,,left,1,2.01705689542,001,3.0.3,60.034780628739156,ninosDelConv2,2019_May_09_0757,114,
,,,5,0,104.0,5,,,,,0,78,78,33,,,,,,,,,,,,,,,,,,right,1,2.13357490534,001,3.0.3,60.034780628739156,ninosDelConv2,2019_May_09_0757,114,
,,,10,0,110.0,60,,,,,0,79,79,18,,,,,,,,,,,,,,,,,,left,1,2.65067163995,001,3.0.3,60.034780628739156,ninosDelConv2,2019_May_09_0757,114,
,,,5,0,150.0,90,,,,,0,80,80,54,,,,,,,,,,,,,,,,,,right,1,3.45034757908,001,3.0.3,60.034780628739156,ninosDelConv2,2019_May_09_0757,114,
,,,10,0,151.0,151,,,,,0,81,81,29,,,,,,,,,,,,,,,,,,left,0,3.66561936308,001,3.0.3,60.034780628739156,ninosDelConv2,2019_May_09_0757,114,
,,,5,0,104.0,90,,,,,0,82,82,53,,,,,,,,,,,,,,,,,,left,0,7.68229482835,001,3.0.3,60.034780628739156,ninosDelConv2,2019_May_09_0757,114,
,,,5,0,15.0,91,,,,,0,83,83,50,,,,,,,,,,,,,,,,,,right,0,2.70012023766,001,3.0.3,60.034780628739156,ninosDelConv2,2019_May_09_0757,114,
,,,25,0,150.0,9,,,,,0,84,84,69,,,,,,,,,,,,,,,,,,left,1,6.39961641142,001,3.0.3,60.034780628739156,ninosDelConv2,2019_May_09_0757,114,
,,,25,0,75.0,59,,,,,0,85,85,77,,,,,,,,,,,,,,,,,,left,0,14.8148590997,001,3.0.3,60.034780628739156,ninosDelConv2,2019_May_09_0757,114,
,,,10,0,61.0,4,,,,,0,86,86,2,,,,,,,,,,,,,,,,,,left,1,4.50003983919,001,3.0.3,60.034780628739156,ninosDelConv2,2019_May_09_0757,114,
,,,10,0,150.0,5,,,,,0,87,87,4,,,,,,,,,,,,,,,,,,left,1,1.18282713369,001,3.0.3,60.034780628739156,ninosDelConv2,2019_May_09_0757,114,
,,,10,0,39.0,59,,,,,0,88,88,16,,,,,,,,,,,,,,,,,,right,1,6.46620518155,001,3.0.3,60.034780628739156,ninosDelConv2,2019_May_09_0757,114,
,,,5,0,35.0,6,,,,,0,89,89,31,,,,,,,,,,,,,,,,,,right,1,4.96691894857,001,3.0.3,60.034780628739156,ninosDelConv2,2019_May_09_0757,114,
