ssAmount,llAmount,llDelay,ss_am,ss_del,ll_am,ll_del,Practice.thisRepN,Practice.thisTrialN,Practice.thisN,Practice.thisIndex,trials.thisRepN,trials.thisTrialN,trials.thisN,trials.thisIndex,intro1.started,intro1.stopped,key1.keys,key1.rt,key1.started,key1.stopped,intro2.started,intro2.stopped,key2.keys,key2.rt,key2.started,key2.stopped,intro2_2.started,intro2_2.stopped,key2_2.keys,key2_2.rt,key2_2.started,key2_2.stopped,Intro2_3.started,Intro2_3.stopped,key2_3.keys,key2_3.rt,key2_3.started,key2_3.stopped,key3.keys,key3.rt,key3.started,key3.stopped,intro3.started,intro3.stopped,ss_am.started,ss_am.stopped,ss_del.started,ss_del.stopped,ll_am.started,ll_am.stopped,ll_del.started,ll_del.stopped,Intro4.started,Intro4.stopped,key4.keys,key4.rt,key4.started,key4.stopped,pregunta.started,pregunta.stopped,ssAm_P.started,ssAm_P.stopped,ssDel_P.started,ssDel_P.stopped,llAm_P.started,llAm_P.stopped,llDel_P.started,llDel_P.stopped,respP.keys,respP.corr,respP.rt,respP.started,respP.stopped,feedbackP.started,feedbackP.stopped,comienzo.started,comienzo.stopped,key5.keys,key5.rt,key5.started,key5.stopped,preguntaT.started,preguntaT.stopped,ssAm_T.started,ssAm_T.stopped,ssDel_T.started,ssDel_T.stopped,llAm_T.started,llAm_T.stopped,llDel_T.started,llDel_T.stopped,respT.keys,respT.corr,respT.rt,respT.started,respT.stopped,textfbT.started,textfbT.stopped,session,participant,date,expName,psychopyVersion,frameRate,
,,,,,,,,,,,,,,,19.84177839999029,None,space,9.873734399996465,20.31253419999848,None,,,,,,,,,,,,,,,,,,,,,,,,,,,,,,,,,,,,,,,,,,,,,,,,,,,,,,,,,,,,,,,,,,,,,,,,,,,,,,,001,137,2019_Aug_10_0851,ninosDelConv2,3.1.5,60.6757457786095,
,,,,,,,,,,,,,,,,,,,,,30.211196499993093,None,space,27.367655599999125,30.727870499991695,None,,,,,,,,,,,,,,,,,,,,,,,,,,,,,,,,,,,,,,,,,,,,,,,,,,,,,,,,,,,,,,,,,,,,,,,,,001,137,2019_Aug_10_0851,ninosDelConv2,3.1.5,60.6757457786095,
,,,,,,,,,,,,,,,,,,,,,,,,,,,58.12125769999693,None,space,39.876195800010464,58.637570799997775,None,,,,,,,,,,,,,,,,,,,,,,,,,,,,,,,,,,,,,,,,,,,,,,,,,,,,,,,,,,,,,,,,,,,001,137,2019_Aug_10_0851,ninosDelConv2,3.1.5,60.6757457786095,
,,,,,,,,,,,,,,,,,,,,,,,,,,,,,,,,,98.53165729998727,None,space,4.632931000000099,99.0485733999958,None,,,,,,,,,,,,,,,,,,,,,,,,,,,,,,,,,,,,,,,,,,,,,,,,,,,,,,,,,,,,,001,137,2019_Aug_10_0851,ninosDelConv2,3.1.5,60.6757457786095,
,,,,,,,,,,,,,,,,,,,,,,,,,,,,,,,,,,,,,,,right,6.876271600005566,104.21263559999352,None,,,,,,,,,,,,,,,,,,,,,,,,,,,,,,,,,,,,,,,,,,,,,,,,,,,,,,,,,001,137,2019_Aug_10_0851,ninosDelConv2,3.1.5,60.6757457786095,
,,,,,,,,,,,,,,,,,,,,,,,,,,,,,,,,,,,,,,,,,,,103.71215329998813,None,103.71215329998813,None,103.71215329998813,None,103.71215329998813,None,103.71215329998813,None,111.11073609998857,None,space,2.725468600008753,111.62825919999159,None,,,,,,,,,,,,,,,,,,,,,,,,,,,,,,,,,,,,,,,,,001,137,2019_Aug_10_0851,ninosDelConv2,3.1.5,60.6757457786095,
25,35,150,,,,,0,0,0,1,,,,,,,,,,,,,,,,,,,,,,,,,,,,,,,,,,,,,,,,,,,,,,,,,114.6280676999886,None,114.6280676999886,None,114.6280676999886,None,114.6280676999886,None,114.6280676999886,None,left,1,6.041159800006426,115.12828479999735,None,121.20457919999899,None,,,,,,,,,,,,,,,,,,,,,,,,001,137,2019_Aug_10_0851,ninosDelConv2,3.1.5,60.6757457786095,
10,19,89,,,,,0,1,1,2,,,,,,,,,,,,,,,,,,,,,,,,,,,,,,,,,,,,,,,,,,,,,,,,,124.2132891999936,None,124.2132891999936,None,124.2132891999936,None,124.2132891999936,None,124.2132891999936,None,left,0,3.1650016000057803,124.70955959999992,None,127.89774389998638,None,,,,,,,,,,,,,,,,,,,,,,,,001,137,2019_Aug_10_0851,ninosDelConv2,3.1.5,60.6757457786095,
10,109,9,,,,,0,2,2,0,,,,,,,,,,,,,,,,,,,,,,,,,,,,,,,,,,,,,,,,,,,,,,,,,130.90967749999254,None,130.90967749999254,None,130.90967749999254,None,130.90967749999254,None,130.90967749999254,None,left,1,3.946600999988732,131.40775429998757,None,135.38115229998948,None,,,,,,,,,,,,,,,,,,,,,,,,001,137,2019_Aug_10_0851,ninosDelConv2,3.1.5,60.6757457786095,
,,,,,,,,,,,,,,,,,,,,,,,,,,,,,,,,,,,,,,,,,,,,,,,,,,,,,,,,,,,,,,,,,,,,,,,,,,,,138.37236389999453,None,g,47.299512600002345,138.89104899999802,None,,,,,,,,,,,,,,,,,,001,137,2019_Aug_10_0851,ninosDelConv2,3.1.5,60.6757457786095,
,,,5,0,149.0,59,,,,,0,0,0,49,,,,,,,,,,,,,,,,,,,,,,,,,,,,,,,,,,,,,,,,,,,,,,,,,,,,,,,,,,,,,,,,,,,,186.30138709998573,None,186.30138709998573,None,186.30138709998573,None,186.30138709998573,None,186.30138709998573,None,right,1,4.122643599999719,186.81392149999738,None,190.9740058999887,None,001,137,2019_Aug_10_0851,ninosDelConv2,3.1.5,60.6757457786095,
,,,5,0,15.0,11,,,,,0,1,1,35,,,,,,,,,,,,,,,,,,,,,,,,,,,,,,,,,,,,,,,,,,,,,,,,,,,,,,,,,,,,,,,,,,,,193.98004689998925,None,193.98004689998925,None,193.98004689998925,None,193.98004689998925,None,193.98004689998925,None,right,1,1.617680499999551,194.48005999998713,None,196.1293544999935,None,001,137,2019_Aug_10_0851,ninosDelConv2,3.1.5,60.6757457786095,
,,,25,0,35.0,5,,,,,0,2,2,60,,,,,,,,,,,,,,,,,,,,,,,,,,,,,,,,,,,,,,,,,,,,,,,,,,,,,,,,,,,,,,,,,,,,199.15000509998936,None,199.15000509998936,None,199.15000509998936,None,199.15000509998936,None,199.15000509998936,None,right,1,1.4642523999937112,199.64561879998655,None,201.1281372999947,None,001,137,2019_Aug_10_0851,ninosDelConv2,3.1.5,60.6757457786095,
,,,25,0,150.0,61,,,,,0,3,3,79,,,,,,,,,,,,,,,,,,,,,,,,,,,,,,,,,,,,,,,,,,,,,,,,,,,,,,,,,,,,,,,,,,,,204.14122629999474,None,204.14122629999474,None,204.14122629999474,None,204.14122629999474,None,204.14122629999474,None,right,1,1.49710999999661,204.6444882999931,None,206.16151459999674,None,001,137,2019_Aug_10_0851,ninosDelConv2,3.1.5,60.6757457786095,
,,,25,0,35.0,30,,,,,0,4,4,70,,,,,,,,,,,,,,,,,,,,,,,,,,,,,,,,,,,,,,,,,,,,,,,,,,,,,,,,,,,,,,,,,,,,209.17585999998846,None,209.17585999998846,None,209.17585999998846,None,209.17585999998846,None,209.17585999998846,None,right,1,2.001119499997003,209.67640779999783,None,211.69449539999187,None,001,137,2019_Aug_10_0851,ninosDelConv2,3.1.5,60.6757457786095,
,,,10,0,20.0,90,,,,,0,5,5,20,,,,,,,,,,,,,,,,,,,,,,,,,,,,,,,,,,,,,,,,,,,,,,,,,,,,,,,,,,,,,,,,,,,,214.7194954999868,None,214.7194954999868,None,214.7194954999868,None,214.7194954999868,None,214.7194954999868,None,left,1,3.602368000007118,215.2095268999983,None,218.84237659999053,None,001,137,2019_Aug_10_0851,ninosDelConv2,3.1.5,60.6757457786095,
,,,10,0,111.0,10,,,,,0,6,6,8,,,,,,,,,,,,,,,,,,,,,,,,,,,,,,,,,,,,,,,,,,,,,,,,,,,,,,,,,,,,,,,,,,,,221.8582677999948,None,221.8582677999948,None,221.8582677999948,None,221.8582677999948,None,221.8582677999948,None,left,1,3.122216700008721,222.35747919999994,None,225.50666739999724,None,001,137,2019_Aug_10_0851,ninosDelConv2,3.1.5,60.6757457786095,
,,,25,0,75.0,31,,,,,0,7,7,72,,,,,,,,,,,,,,,,,,,,,,,,,,,,,,,,,,,,,,,,,,,,,,,,,,,,,,,,,,,,,,,,,,,,228.52828169999702,None,228.52828169999702,None,228.52828169999702,None,228.52828169999702,None,228.52828169999702,None,left,1,2.46652709999762,229.02353979999316,None,231.5064582999912,None,001,137,2019_Aug_10_0851,ninosDelConv2,3.1.5,60.6757457786095,
,,,10,0,39.0,59,,,,,0,8,8,16,,,,,,,,,,,,,,,,,,,,,,,,,,,,,,,,,,,,,,,,,,,,,,,,,,,,,,,,,,,,,,,,,,,,234.51321809999354,None,234.51321809999354,None,234.51321809999354,None,234.51321809999354,None,234.51321809999354,None,right,1,1.081961499992758,235.0223718999914,None,236.12115319998702,None,001,137,2019_Aug_10_0851,ninosDelConv2,3.1.5,60.6757457786095,
,,,5,0,55.0,151,,,,,0,9,9,57,,,,,,,,,,,,,,,,,,,,,,,,,,,,,,,,,,,,,,,,,,,,,,,,,,,,,,,,,,,,,,,,,,,,239.14527129998896,None,239.14527129998896,None,239.14527129998896,None,239.14527129998896,None,239.14527129998896,None,right,1,0.7684178999916185,239.6373481999908,None,240.4208709999948,None,001,137,2019_Aug_10_0851,ninosDelConv2,3.1.5,60.6757457786095,
,,,5,0,151.0,4,,,,,0,10,10,34,,,,,,,,,,,,,,,,,,,,,,,,,,,,,,,,,,,,,,,,,,,,,,,,,,,,,,,,,,,,,,,,,,,,243.4306007999985,None,243.4306007999985,None,243.4306007999985,None,243.4306007999985,None,243.4306007999985,None,right,1,0.9548219999996945,243.93735229999584,None,244.91964199999347,None,001,137,2019_Aug_10_0851,ninosDelConv2,3.1.5,60.6757457786095,
,,,25,0,125.0,31,,,,,0,11,11,73,,,,,,,,,,,,,,,,,,,,,,,,,,,,,,,,,,,,,,,,,,,,,,,,,,,,,,,,,,,,,,,,,,,,247.94395209998765,None,247.94395209998765,None,247.94395209998765,None,247.94395209998765,None,247.94395209998765,None,right,1,1.154600699999719,248.43583879999642,None,249.61905539999134,None,001,137,2019_Aug_10_0851,ninosDelConv2,3.1.5,60.6757457786095,
,,,10,0,151.0,11,,,,,0,12,12,9,,,,,,,,,,,,,,,,,,,,,,,,,,,,,,,,,,,,,,,,,,,,,,,,,,,,,,,,,,,,,,,,,,,,252.63996169999882,None,252.63996169999882,None,252.63996169999882,None,252.63996169999882,None,252.63996169999882,None,right,1,1.249916700005997,253.1348219999927,None,254.40165099999285,None,001,137,2019_Aug_10_0851,ninosDelConv2,3.1.5,60.6757457786095,
,,,10,0,59.0,9,,,,,0,13,13,7,,,,,,,,,,,,,,,,,,,,,,,,,,,,,,,,,,,,,,,,,,,,,,,,,,,,,,,,,,,,,,,,,,,,257.41813129998627,None,257.41813129998627,None,257.41813129998627,None,257.41813129998627,None,257.41813129998627,None,right,1,1.9190664000052493,257.9179206999979,None,259.8679734999896,None,001,137,2019_Aug_10_0851,ninosDelConv2,3.1.5,60.6757457786095,
,,,25,0,75.0,59,,,,,0,14,14,77,,,,,,,,,,,,,,,,,,,,,,,,,,,,,,,,,,,,,,,,,,,,,,,,,,,,,,,,,,,,,,,,,,,,262.8908895999921,None,262.8908895999921,None,262.8908895999921,None,262.8908895999921,None,262.8908895999921,None,left,1,2.475055999995675,263.38359499999206,None,265.8839905999921,None,001,137,2019_Aug_10_0851,ninosDelConv2,3.1.5,60.6757457786095,
,,,10,0,39.0,150,,,,,0,15,15,26,,,,,,,,,,,,,,,,,,,,,,,,,,,,,,,,,,,,,,,,,,,,,,,,,,,,,,,,,,,,,,,,,,,,268.90477089998603,None,268.90477089998603,None,268.90477089998603,None,268.90477089998603,None,268.90477089998603,None,right,0,2.474714200012386,269.3992118999886,None,271.9091931999865,None,001,137,2019_Aug_10_0851,ninosDelConv2,3.1.5,60.6757457786095,
,,,10,0,149.0,89,,,,,0,16,16,24,,,,,,,,,,,,,,,,,,,,,,,,,,,,,,,,,,,,,,,,,,,,,,,,,,,,,,,,,,,,,,,,,,,,274.9145964999916,None,274.9145964999916,None,274.9145964999916,None,274.9145964999916,None,274.9145964999916,None,left,1,1.1518635999964317,275.4146605999995,None,276.60722009999154,None,001,137,2019_Aug_10_0851,ninosDelConv2,3.1.5,60.6757457786095,
,,,25,0,125.0,89,,,,,0,17,17,83,,,,,,,,,,,,,,,,,,,,,,,,,,,,,,,,,,,,,,,,,,,,,,,,,,,,,,,,,,,,,,,,,,,,279.61506559999543,None,279.61506559999543,None,279.61506559999543,None,279.61506559999543,None,279.61506559999543,None,right,1,1.1675664999929722,280.1138620999991,None,281.29596909999964,None,001,137,2019_Aug_10_0851,ninosDelConv2,3.1.5,60.6757457786095,
,,,5,0,14.0,31,,,,,0,18,18,40,,,,,,,,,,,,,,,,,,,,,,,,,,,,,,,,,,,,,,,,,,,,,,,,,,,,,,,,,,,,,,,,,,,,284.31873789998644,None,284.31873789998644,None,284.31873789998644,None,284.31873789998644,None,284.31873789998644,None,right,1,4.803183399999398,284.8122546999948,None,289.6433764999965,None,001,137,2019_Aug_10_0851,ninosDelConv2,3.1.5,60.6757457786095,
,,,25,0,35.0,90,,,,,0,19,19,80,,,,,,,,,,,,,,,,,,,,,,,,,,,,,,,,,,,,,,,,,,,,,,,,,,,,,,,,,,,,,,,,,,,,292.6670361999859,None,292.6670361999859,None,292.6670361999859,None,292.6670361999859,None,292.6670361999859,None,left,0,2.229596199991647,293.16057739999087,None,295.4223020999925,None,001,137,2019_Aug_10_0851,ninosDelConv2,3.1.5,60.6757457786095,
,,,5,0,104.0,10,,,,,0,20,20,38,,,,,,,,,,,,,,,,,,,,,,,,,,,,,,,,,,,,,,,,,,,,,,,,,,,,,,,,,,,,,,,,,,,,298.43267789999663,None,298.43267789999663,None,298.43267789999663,None,298.43267789999663,None,298.43267789999663,None,left,1,1.4496121999982279,298.9269373999996,None,300.4025615999999,None,001,137,2019_Aug_10_0851,ninosDelConv2,3.1.5,60.6757457786095,
,,,5,0,56.0,29,,,,,0,21,21,42,,,,,,,,,,,,,,,,,,,,,,,,,,,,,,,,,,,,,,,,,,,,,,,,,,,,,,,,,,,,,,,,,,,,303.4088691999932,None,303.4088691999932,None,303.4088691999932,None,303.4088691999932,None,303.4088691999932,None,left,1,1.829631700005848,303.90934019999986,None,305.7597206999926,None,001,137,2019_Aug_10_0851,ninosDelConv2,3.1.5,60.6757457786095,
,,,5,0,106.0,152,,,,,0,22,22,58,,,,,,,,,,,,,,,,,,,,,,,,,,,,,,,,,,,,,,,,,,,,,,,,,,,,,,,,,,,,,,,,,,,,308.77698179999425,None,308.77698179999425,None,308.77698179999425,None,308.77698179999425,None,308.77698179999425,None,right,1,2.228727699999581,309.27452469999844,None,311.5237183999998,None,001,137,2019_Aug_10_0851,ninosDelConv2,3.1.5,60.6757457786095,
,,,5,0,104.0,5,,,,,0,23,23,33,,,,,,,,,,,,,,,,,,,,,,,,,,,,,,,,,,,,,,,,,,,,,,,,,,,,,,,,,,,,,,,,,,,,314.54328229998646,None,314.54328229998646,None,314.54328229998646,None,314.54328229998646,None,314.54328229998646,None,right,1,1.291899400006514,315.04054879999603,None,316.35620019999624,None,001,137,2019_Aug_10_0851,ninosDelConv2,3.1.5,60.6757457786095,
,,,5,0,35.0,31,,,,,0,24,24,41,,,,,,,,,,,,,,,,,,,,,,,,,,,,,,,,,,,,,,,,,,,,,,,,,,,,,,,,,,,,,,,,,,,,319.37323789999937,None,319.37323789999937,None,319.37323789999937,None,319.37323789999937,None,319.37323789999937,None,right,1,2.343732399996952,319.87220489999163,None,322.2385512999899,None,001,137,2019_Aug_10_0851,ninosDelConv2,3.1.5,60.6757457786095,
,,,10,0,40.0,91,,,,,0,25,25,21,,,,,,,,,,,,,,,,,,,,,,,,,,,,,,,,,,,,,,,,,,,,,,,,,,,,,,,,,,,,,,,,,,,,325.2599626999872,None,325.2599626999872,None,325.2599626999872,None,325.2599626999872,None,325.2599626999872,None,right,0,3.0926261999993585,325.7548124999885,None,328.88284519998706,None,001,137,2019_Aug_10_0851,ninosDelConv2,3.1.5,60.6757457786095,
,,,25,0,75.0,151,,,,,0,26,26,87,,,,,,,,,,,,,,,,,,,,,,,,,,,,,,,,,,,,,,,,,,,,,,,,,,,,,,,,,,,,,,,,,,,,331.8936502999859,None,331.8936502999859,None,331.8936502999859,None,331.8936502999859,None,331.8936502999859,None,left,0,1.6477947999956086,332.38648229998944,None,334.0531076999905,None,001,137,2019_Aug_10_0851,ninosDelConv2,3.1.5,60.6757457786095,
,,,10,0,39.0,29,,,,,0,27,27,11,,,,,,,,,,,,,,,,,,,,,,,,,,,,,,,,,,,,,,,,,,,,,,,,,,,,,,,,,,,,,,,,,,,,337.0737614999962,None,337.0737614999962,None,337.0737614999962,None,337.0737614999962,None,337.0737614999962,None,right,1,1.8765959000011208,337.5695498999994,None,339.47841419999895,None,001,137,2019_Aug_10_0851,ninosDelConv2,3.1.5,60.6757457786095,
,,,25,0,55.0,151,,,,,0,28,28,86,,,,,,,,,,,,,,,,,,,,,,,,,,,,,,,,,,,,,,,,,,,,,,,,,,,,,,,,,,,,,,,,,,,,342.4853708999872,None,342.4853708999872,None,342.4853708999872,None,342.4853708999872,None,342.4853708999872,None,left,0,2.4663299999956507,342.98460049999994,None,345.4787267999927,None,001,137,2019_Aug_10_0851,ninosDelConv2,3.1.5,60.6757457786095,
,,,5,0,104.0,90,,,,,0,29,29,53,,,,,,,,,,,,,,,,,,,,,,,,,,,,,,,,,,,,,,,,,,,,,,,,,,,,,,,,,,,,,,,,,,,,348.4931297999865,None,348.4931297999865,None,348.4931297999865,None,348.4931297999865,None,348.4931297999865,None,left,1,2.237484500001301,348.98338669999794,None,351.2549389999913,None,001,137,2019_Aug_10_0851,ninosDelConv2,3.1.5,60.6757457786095,
,,,10,0,109.0,5,,,,,0,30,30,3,,,,,,,,,,,,,,,,,,,,,,,,,,,,,,,,,,,,,,,,,,,,,,,,,,,,,,,,,,,,,,,,,,,,354.2692012999905,None,354.2692012999905,None,354.2692012999905,None,354.2692012999905,None,354.2692012999905,None,left,1,2.122607199999038,354.7664124999865,None,356.91615289999754,None,001,137,2019_Aug_10_0851,ninosDelConv2,3.1.5,60.6757457786095,
,,,25,0,75.0,5,,,,,0,31,31,62,,,,,,,,,,,,,,,,,,,,,,,,,,,,,,,,,,,,,,,,,,,,,,,,,,,,,,,,,,,,,,,,,,,,359.9323626999976,None,359.9323626999976,None,359.9323626999976,None,359.9323626999976,None,359.9323626999976,None,left,1,2.652744899998652,360.4319628999947,None,363.11378649999097,None,001,137,2019_Aug_10_0851,ninosDelConv2,3.1.5,60.6757457786095,
,,,25,0,125.0,9,,,,,0,32,32,68,,,,,,,,,,,,,,,,,,,,,,,,,,,,,,,,,,,,,,,,,,,,,,,,,,,,,,,,,,,,,,,,,,,,366.1264923999988,None,366.1264923999988,None,366.1264923999988,None,366.1264923999988,None,366.1264923999988,None,left,1,1.386783199995989,366.6306862999918,None,368.0474703999935,None,001,137,2019_Aug_10_0851,ninosDelConv2,3.1.5,60.6757457786095,
,,,10,0,20.0,59,,,,,0,33,33,15,,,,,,,,,,,,,,,,,,,,,,,,,,,,,,,,,,,,,,,,,,,,,,,,,,,,,,,,,,,,,,,,,,,,371.0693964999955,None,371.0693964999955,None,371.0693964999955,None,371.0693964999955,None,371.0693964999955,None,left,0,4.176456300003338,371.5632495999889,None,375.7738579999859,None,001,137,2019_Aug_10_0851,ninosDelConv2,3.1.5,60.6757457786095,
,,,25,0,150.0,89,,,,,0,34,34,84,,,,,,,,,,,,,,,,,,,,,,,,,,,,,,,,,,,,,,,,,,,,,,,,,,,,,,,,,,,,,,,,,,,,378.77966889999516,None,378.77966889999516,None,378.77966889999516,None,378.77966889999516,None,378.77966889999516,None,right,1,2.57003529999929,379.2770407999924,None,381.8864438999881,None,001,137,2019_Aug_10_0851,ninosDelConv2,3.1.5,60.6757457786095,
,,,10,0,109.0,149,,,,,0,35,35,28,,,,,,,,,,,,,,,,,,,,,,,,,,,,,,,,,,,,,,,,,,,,,,,,,,,,,,,,,,,,,,,,,,,,384.8986842999875,None,384.8986842999875,None,384.8986842999875,None,384.8986842999875,None,384.8986842999875,None,left,0,1.6586462999985088,385.3933515999961,None,387.0758089999872,None,001,137,2019_Aug_10_0851,ninosDelConv2,3.1.5,60.6757457786095,
,,,10,0,60.0,29,,,,,0,36,36,12,,,,,,,,,,,,,,,,,,,,,,,,,,,,,,,,,,,,,,,,,,,,,,,,,,,,,,,,,,,,,,,,,,,,390.0798073999904,None,390.0798073999904,None,390.0798073999904,None,390.0798073999904,None,390.0798073999904,None,right,1,2.410513200011337,390.5929310999927,None,393.034428199986,None,001,137,2019_Aug_10_0851,ninosDelConv2,3.1.5,60.6757457786095,
,,,5,0,56.0,89,,,,,0,37,37,52,,,,,,,,,,,,,,,,,,,,,,,,,,,,,,,,,,,,,,,,,,,,,,,,,,,,,,,,,,,,,,,,,,,,396.04617699999653,None,396.04617699999653,None,396.04617699999653,None,396.04617699999653,None,396.04617699999653,None,right,1,1.7176313000090886,396.5417177999916,None,398.27420809998875,None,001,137,2019_Aug_10_0851,ninosDelConv2,3.1.5,60.6757457786095,
,,,5,0,36.0,9,,,,,0,38,38,36,,,,,,,,,,,,,,,,,,,,,,,,,,,,,,,,,,,,,,,,,,,,,,,,,,,,,,,,,,,,,,,,,,,,401.2917768999905,None,401.2917768999905,None,401.2917768999905,None,401.2917768999905,None,401.2917768999905,None,right,1,1.0388674999994691,401.7906551999913,None,402.8570701999997,None,001,137,2019_Aug_10_0851,ninosDelConv2,3.1.5,60.6757457786095,
,,,10,0,149.0,61,,,,,0,39,39,19,,,,,,,,,,,,,,,,,,,,,,,,,,,,,,,,,,,,,,,,,,,,,,,,,,,,,,,,,,,,,,,,,,,,405.88004859999637,None,405.88004859999637,None,405.88004859999637,None,405.88004859999637,None,405.88004859999637,None,right,1,1.4493868999998085,406.3730643999879,None,407.83990489999996,None,001,137,2019_Aug_10_0851,ninosDelConv2,3.1.5,60.6757457786095,
,,,10,0,40.0,10,,,,,0,40,40,6,,,,,,,,,,,,,,,,,,,,,,,,,,,,,,,,,,,,,,,,,,,,,,,,,,,,,,,,,,,,,,,,,,,,410.85467979998793,None,410.85467979998793,None,410.85467979998793,None,410.85467979998793,None,410.85467979998793,None,left,1,1.065536299996893,411.35553779998736,None,412.4388820999884,None,001,137,2019_Aug_10_0851,ninosDelConv2,3.1.5,60.6757457786095,
,,,5,0,35.0,6,,,,,0,41,41,31,,,,,,,,,,,,,,,,,,,,,,,,,,,,,,,,,,,,,,,,,,,,,,,,,,,,,,,,,,,,,,,,,,,,415.4623409999913,None,415.4623409999913,None,415.4623409999913,None,415.4623409999913,None,415.4623409999913,None,left,1,1.6131282999995165,415.9540025999886,None,417.58710579999024,None,001,137,2019_Aug_10_0851,ninosDelConv2,3.1.5,60.6757457786095,
,,,25,0,55.0,30,,,,,0,42,42,71,,,,,,,,,,,,,,,,,,,,,,,,,,,,,,,,,,,,,,,,,,,,,,,,,,,,,,,,,,,,,,,,,,,,420.61068919999525,None,420.61068919999525,None,420.61068919999525,None,420.61068919999525,None,420.61068919999525,None,left,1,3.9735555999941425,421.1035043999873,None,425.1029361999972,None,001,137,2019_Aug_10_0851,ninosDelConv2,3.1.5,60.6757457786095,
,,,25,0,150.0,29,,,,,0,43,43,74,,,,,,,,,,,,,,,,,,,,,,,,,,,,,,,,,,,,,,,,,,,,,,,,,,,,,,,,,,,,,,,,,,,,428.1199887999974,None,428.1199887999974,None,428.1199887999974,None,428.1199887999974,None,428.1199887999974,None,left,1,0.9156748000095831,428.6189650999877,None,429.5505586999934,None,001,137,2019_Aug_10_0851,ninosDelConv2,3.1.5,60.6757457786095,
,,,25,0,55.0,90,,,,,0,44,44,81,,,,,,,,,,,,,,,,,,,,,,,,,,,,,,,,,,,,,,,,,,,,,,,,,,,,,,,,,,,,,,,,,,,,432.55521389999194,None,432.55521389999194,None,432.55521389999194,None,432.55521389999194,None,432.55521389999194,None,left,0,2.258833300002152,433.0673145999899,None,435.3609593000001,None,001,137,2019_Aug_10_0851,ninosDelConv2,3.1.5,60.6757457786095,
,,,5,0,149.0,10,,,,,0,45,45,39,,,,,,,,,,,,,,,,,,,,,,,,,,,,,,,,,,,,,,,,,,,,,,,,,,,,,,,,,,,,,,,,,,,,438.37089579999156,None,438.37089579999156,None,438.37089579999156,None,438.37089579999156,None,438.37089579999156,None,left,1,2.6861400000052527,438.86702129998594,None,441.59283409999625,None,001,137,2019_Aug_10_0851,ninosDelConv2,3.1.5,60.6757457786095,
,,,5,0,54.0,5,,,,,0,46,46,32,,,,,,,,,,,,,,,,,,,,,,,,,,,,,,,,,,,,,,,,,,,,,,,,,,,,,,,,,,,,,,,,,,,,444.5820818999928,None,444.5820818999928,None,444.5820818999928,None,444.5820818999928,None,444.5820818999928,None,left,1,0.8259290999994846,445.0977680999931,None,445.9489019999892,None,001,137,2019_Aug_10_0851,ninosDelConv2,3.1.5,60.6757457786095,
,,,25,0,55.0,6,,,,,0,47,47,61,,,,,,,,,,,,,,,,,,,,,,,,,,,,,,,,,,,,,,,,,,,,,,,,,,,,,,,,,,,,,,,,,,,,448.95572639998863,None,448.95572639998863,None,448.95572639998863,None,448.95572639998863,None,448.95572639998863,None,left,1,2.157530199998291,449.4648632999888,None,451.64812059998803,None,001,137,2019_Aug_10_0851,ninosDelConv2,3.1.5,60.6757457786095,
,,,25,0,35.0,11,,,,,0,48,48,65,,,,,,,,,,,,,,,,,,,,,,,,,,,,,,,,,,,,,,,,,,,,,,,,,,,,,,,,,,,,,,,,,,,,454.6511824999907,None,454.6511824999907,None,454.6511824999907,None,454.6511824999907,None,454.6511824999907,None,left,1,3.071288099992671,455.16315749999194,None,458.2627996999945,None,001,137,2019_Aug_10_0851,ninosDelConv2,3.1.5,60.6757457786095,
,,,5,0,106.0,29,,,,,0,49,49,43,,,,,,,,,,,,,,,,,,,,,,,,,,,,,,,,,,,,,,,,,,,,,,,,,,,,,,,,,,,,,,,,,,,,461.2859380999871,None,461.2859380999871,None,461.2859380999871,None,461.2859380999871,None,461.2859380999871,None,right,1,1.1835292000032496,461.7787103999872,None,462.97992529999465,None,001,137,2019_Aug_10_0851,ninosDelConv2,3.1.5,60.6757457786095,
,,,25,0,125.0,149,,,,,0,50,50,88,,,,,,,,,,,,,,,,,,,,,,,,,,,,,,,,,,,,,,,,,,,,,,,,,,,,,,,,,,,,,,,,,,,,466.0003730999888,None,466.0003730999888,None,466.0003730999888,None,466.0003730999888,None,466.0003730999888,None,right,0,7.7511302000057185,466.4942263999983,None,474.2825451999961,None,001,137,2019_Aug_10_0851,ninosDelConv2,3.1.5,60.6757457786095,
,,,10,0,110.0,90,,,,,0,51,51,23,,,,,,,,,,,,,,,,,,,,,,,,,,,,,,,,,,,,,,,,,,,,,,,,,,,,,,,,,,,,,,,,,,,,477.29908119999163,None,477.29908119999163,None,477.29908119999163,None,477.29908119999163,None,477.29908119999163,None,left,1,1.4422857000026852,477.7929892999964,None,479.2646495999943,None,001,137,2019_Aug_10_0851,ninosDelConv2,3.1.5,60.6757457786095,
,,,25,0,75.0,90,,,,,0,52,52,82,,,,,,,,,,,,,,,,,,,,,,,,,,,,,,,,,,,,,,,,,,,,,,,,,,,,,,,,,,,,,,,,,,,,482.27481469999475,None,482.27481469999475,None,482.27481469999475,None,482.27481469999475,None,482.27481469999475,None,right,1,3.519501600007061,482.7754564999923,None,486.3238777999941,None,001,137,2019_Aug_10_0851,ninosDelConv2,3.1.5,60.6757457786095,
,,,10,0,111.0,30,,,,,0,53,53,13,,,,,,,,,,,,,,,,,,,,,,,,,,,,,,,,,,,,,,,,,,,,,,,,,,,,,,,,,,,,,,,,,,,,489.3252429999993,None,489.3252429999993,None,489.3252429999993,None,489.3252429999993,None,489.3252429999993,None,left,1,3.49060720000125,489.8398877999862,None,493.35597989999224,None,001,137,2019_Aug_10_0851,ninosDelConv2,3.1.5,60.6757457786095,
,,,10,0,10.01,150,,,,,0,54,54,25,,,,,,,,,,,,,,,,,,,,,,,,,,,,,,,,,,,,,,,,,,,,,,,,,,,,,,,,,,,,,,,,,,,,496.3740836999932,None,496.3740836999932,None,496.3740836999932,None,496.3740836999932,None,496.3740836999932,None,right,0,3.559993199989549,496.8725981999887,None,500.465108599994,None,001,137,2019_Aug_10_0851,ninosDelConv2,3.1.5,60.6757457786095,
,,,5,0,150.0,90,,,,,0,55,55,54,,,,,,,,,,,,,,,,,,,,,,,,,,,,,,,,,,,,,,,,,,,,,,,,,,,,,,,,,,,,,,,,,,,,503.4788133999973,None,503.4788133999973,None,503.4788133999973,None,503.4788133999973,None,503.4788133999973,None,left,1,1.1547022000013385,503.9710469999991,None,505.15866399998777,None,001,137,2019_Aug_10_0851,ninosDelConv2,3.1.5,60.6757457786095,
,,,5,0,14.0,149,,,,,0,56,56,55,,,,,,,,,,,,,,,,,,,,,,,,,,,,,,,,,,,,,,,,,,,,,,,,,,,,,,,,,,,,,,,,,,,,508.16852859999926,None,508.16852859999926,None,508.16852859999926,None,508.16852859999926,None,508.16852859999926,None,right,0,2.076841300004162,508.6696726999944,None,510.77747469999304,None,001,137,2019_Aug_10_0851,ninosDelConv2,3.1.5,60.6757457786095,
,,,5,0,56.0,60,,,,,0,57,57,47,,,,,,,,,,,,,,,,,,,,,,,,,,,,,,,,,,,,,,,,,,,,,,,,,,,,,,,,,,,,,,,,,,,,513.7873333999887,None,513.7873333999887,None,513.7873333999887,None,513.7873333999887,None,513.7873333999887,None,left,1,2.434315399994375,514.2860430999863,None,516.7526075999922,None,001,137,2019_Aug_10_0851,ninosDelConv2,3.1.5,60.6757457786095,
,,,5,0,56.0,9,,,,,0,58,58,37,,,,,,,,,,,,,,,,,,,,,,,,,,,,,,,,,,,,,,,,,,,,,,,,,,,,,,,,,,,,,,,,,,,,519.7614588999859,None,519.7614588999859,None,519.7614588999859,None,519.7614588999859,None,519.7614588999859,None,left,1,1.1824386999942362,520.2678288999887,None,521.4676828999945,None,001,137,2019_Aug_10_0851,ninosDelConv2,3.1.5,60.6757457786095,
,,,10,0,110.0,60,,,,,0,59,59,18,,,,,,,,,,,,,,,,,,,,,,,,,,,,,,,,,,,,,,,,,,,,,,,,,,,,,,,,,,,,,,,,,,,,524.4906527999992,None,524.4906527999992,None,524.4906527999992,None,524.4906527999992,None,524.4906527999992,None,right,1,1.8884201999899233,524.9833611999929,None,526.8997653999977,None,001,137,2019_Aug_10_0851,ninosDelConv2,3.1.5,60.6757457786095,
,,,5,0,36.0,61,,,,,0,60,60,46,,,,,,,,,,,,,,,,,,,,,,,,,,,,,,,,,,,,,,,,,,,,,,,,,,,,,,,,,,,,,,,,,,,,529.9204107999976,None,529.9204107999976,None,529.9204107999976,None,529.9204107999976,None,529.9204107999976,None,left,0,6.431925599987153,530.415431699992,None,536.874256199997,None,001,137,2019_Aug_10_0851,ninosDelConv2,3.1.5,60.6757457786095,
,,,10,0,151.0,151,,,,,0,61,61,29,,,,,,,,,,,,,,,,,,,,,,,,,,,,,,,,,,,,,,,,,,,,,,,,,,,,,,,,,,,,,,,,,,,,539.8722738999932,None,539.8722738999932,None,539.8722738999932,None,539.8722738999932,None,539.8722738999932,None,right,1,3.834472200003802,540.3804052999913,None,544.2485470999964,None,001,137,2019_Aug_10_0851,ninosDelConv2,3.1.5,60.6757457786095,
,,,10,0,61.0,150,,,,,0,62,62,27,,,,,,,,,,,,,,,,,,,,,,,,,,,,,,,,,,,,,,,,,,,,,,,,,,,,,,,,,,,,,,,,,,,,547.2613229999988,None,547.2613229999988,None,547.2613229999988,None,547.2613229999988,None,547.2613229999988,None,left,0,7.12571070001286,547.762461499995,None,554.9214692999958,None,001,137,2019_Aug_10_0851,ninosDelConv2,3.1.5,60.6757457786095,
,,,5,0,35.0,89,,,,,0,63,63,51,,,,,,,,,,,,,,,,,,,,,,,,,,,,,,,,,,,,,,,,,,,,,,,,,,,,,,,,,,,,,,,,,,,,557.9356654999865,None,557.9356654999865,None,557.9356654999865,None,557.9356654999865,None,557.9356654999865,None,right,1,1.1373387000057846,558.4275579999958,None,559.6012512999878,None,001,137,2019_Aug_10_0851,ninosDelConv2,3.1.5,60.6757457786095,
,,,5,0,15.0,91,,,,,0,64,64,50,,,,,,,,,,,,,,,,,,,,,,,,,,,,,,,,,,,,,,,,,,,,,,,,,,,,,,,,,,,,,,,,,,,,562.6096393999906,None,562.6096393999906,None,562.6096393999906,None,562.6096393999906,None,562.6096393999906,None,right,0,1.5619681000098353,563.1100668999861,None,564.692530699991,None,001,137,2019_Aug_10_0851,ninosDelConv2,3.1.5,60.6757457786095,
,,,10,0,20.0,5,,,,,0,65,65,0,,,,,,,,,,,,,,,,,,,,,,,,,,,,,,,,,,,,,,,,,,,,,,,,,,,,,,,,,,,,,,,,,,,,567.7153885999869,None,567.7153885999869,None,567.7153885999869,None,567.7153885999869,None,567.7153885999869,None,left,1,1.2826644000015222,568.2087350999936,None,569.518258199998,None,001,137,2019_Aug_10_0851,ninosDelConv2,3.1.5,60.6757457786095,
,,,10,0,150.0,30,,,,,0,66,66,14,,,,,,,,,,,,,,,,,,,,,,,,,,,,,,,,,,,,,,,,,,,,,,,,,,,,,,,,,,,,,,,,,,,,572.5252137999923,None,572.5252137999923,None,572.5252137999923,None,572.5252137999923,None,572.5252137999923,None,left,1,1.9021584000001894,573.0233119999903,None,574.9420762999944,None,001,137,2019_Aug_10_0851,ninosDelConv2,3.1.5,60.6757457786095,
,,,10,0,19.0,11,,,,,0,67,67,5,,,,,,,,,,,,,,,,,,,,,,,,,,,,,,,,,,,,,,,,,,,,,,,,,,,,,,,,,,,,,,,,,,,,577.9575104999967,None,577.9575104999967,None,577.9575104999967,None,577.9575104999967,None,577.9575104999967,None,left,0,2.291708299992024,578.4563892999868,None,580.7850958999916,None,001,137,2019_Aug_10_0851,ninosDelConv2,3.1.5,60.6757457786095,
,,,10,0,61.0,4,,,,,0,68,68,2,,,,,,,,,,,,,,,,,,,,,,,,,,,,,,,,,,,,,,,,,,,,,,,,,,,,,,,,,,,,,,,,,,,,583.7887984999979,None,583.7887984999979,None,583.7887984999979,None,583.7887984999979,None,583.7887984999979,None,left,1,0.9055779000045732,584.288725499995,None,585.2332368999923,None,001,137,2019_Aug_10_0851,ninosDelConv2,3.1.5,60.6757457786095,
,,,5,0,150.0,30,,,,,0,69,69,44,,,,,,,,,,,,,,,,,,,,,,,,,,,,,,,,,,,,,,,,,,,,,,,,,,,,,,,,,,,,,,,,,,,,588.2413381999941,None,588.2413381999941,None,588.2413381999941,None,588.2413381999941,None,588.2413381999941,None,left,1,0.9011143000097945,588.7386499999993,None,589.6550620999915,None,001,137,2019_Aug_10_0851,ninosDelConv2,3.1.5,60.6757457786095,
,,,5,0,15.0,61,,,,,0,70,70,45,,,,,,,,,,,,,,,,,,,,,,,,,,,,,,,,,,,,,,,,,,,,,,,,,,,,,,,,,,,,,,,,,,,,592.6616757999873,None,592.6616757999873,None,592.6616757999873,None,592.6616757999873,None,592.6616757999873,None,left,0,1.1931867999956012,593.1710306999885,None,594.3972195999959,None,001,137,2019_Aug_10_0851,ninosDelConv2,3.1.5,60.6757457786095,
,,,25,0,35.0,60,,,,,0,71,71,75,,,,,,,,,,,,,,,,,,,,,,,,,,,,,,,,,,,,,,,,,,,,,,,,,,,,,,,,,,,,,,,,,,,,597.4096064999903,None,597.4096064999903,None,597.4096064999903,None,597.4096064999903,None,597.4096064999903,None,right,0,1.4951803000003565,597.9035770999908,None,599.4191261999949,None,001,137,2019_Aug_10_0851,ninosDelConv2,3.1.5,60.6757457786095,
,,,25,0,55.0,60,,,,,0,72,72,76,,,,,,,,,,,,,,,,,,,,,,,,,,,,,,,,,,,,,,,,,,,,,,,,,,,,,,,,,,,,,,,,,,,,602.4304539999866,None,602.4304539999866,None,602.4304539999866,None,602.4304539999866,None,602.4304539999866,None,left,1,3.532791699995869,602.9352329999965,None,606.4949457999901,None,001,137,2019_Aug_10_0851,ninosDelConv2,3.1.5,60.6757457786095,
,,,10,0,39.0,6,,,,,0,73,73,1,,,,,,,,,,,,,,,,,,,,,,,,,,,,,,,,,,,,,,,,,,,,,,,,,,,,,,,,,,,,,,,,,,,,609.5056137999927,None,609.5056137999927,None,609.5056137999927,None,609.5056137999927,None,609.5056137999927,None,left,1,1.5288387000036892,610.0003215999895,None,611.550290299987,None,001,137,2019_Aug_10_0851,ninosDelConv2,3.1.5,60.6757457786095,
,,,25,0,55.0,11,,,,,0,74,74,66,,,,,,,,,,,,,,,,,,,,,,,,,,,,,,,,,,,,,,,,,,,,,,,,,,,,,,,,,,,,,,,,,,,,614.5747705999966,None,614.5747705999966,None,614.5747705999966,None,614.5747705999966,None,614.5747705999966,None,left,1,0.9608035999990534,615.0668938999879,None,616.0511678999901,None,001,137,2019_Aug_10_0851,ninosDelConv2,3.1.5,60.6757457786095,
,,,5,0,35.0,150,,,,,0,75,75,56,,,,,,,,,,,,,,,,,,,,,,,,,,,,,,,,,,,,,,,,,,,,,,,,,,,,,,,,,,,,,,,,,,,,619.0567414999969,None,619.0567414999969,None,619.0567414999969,None,619.0567414999969,None,619.0567414999969,None,left,0,3.5800125999958254,619.5658994999976,None,623.1754719999881,None,001,137,2019_Aug_10_0851,ninosDelConv2,3.1.5,60.6757457786095,
,,,25,0,75.0,10,,,,,0,76,76,67,,,,,,,,,,,,,,,,,,,,,,,,,,,,,,,,,,,,,,,,,,,,,,,,,,,,,,,,,,,,,,,,,,,,626.1884172999999,None,626.1884172999999,None,626.1884172999999,None,626.1884172999999,None,626.1884172999999,None,left,1,1.1671922000095947,626.680720999997,None,627.8736215999961,None,001,137,2019_Aug_10_0851,ninosDelConv2,3.1.5,60.6757457786095,
,,,5,0,105.0,60,,,,,0,77,77,48,,,,,,,,,,,,,,,,,,,,,,,,,,,,,,,,,,,,,,,,,,,,,,,,,,,,,,,,,,,,,,,,,,,,630.8851265999983,None,630.8851265999983,None,630.8851265999983,None,630.8851265999983,None,630.8851265999983,None,right,1,3.9326942000043346,631.3806076999899,None,635.3291836999997,None,001,137,2019_Aug_10_0851,ninosDelConv2,3.1.5,60.6757457786095,
,,,25,0,125.0,59,,,,,0,78,78,78,,,,,,,,,,,,,,,,,,,,,,,,,,,,,,,,,,,,,,,,,,,,,,,,,,,,,,,,,,,,,,,,,,,,638.3555716999981,None,638.3555716999981,None,638.3555716999981,None,638.3555716999981,None,638.3555716999981,None,left,1,0.9593301999993855,638.8456698999944,None,639.8283171999938,None,001,137,2019_Aug_10_0851,ninosDelConv2,3.1.5,60.6757457786095,
,,,10,0,60.0,60,,,,,0,79,79,17,,,,,,,,,,,,,,,,,,,,,,,,,,,,,,,,,,,,,,,,,,,,,,,,,,,,,,,,,,,,,,,,,,,,642.8392584999965,None,642.8392584999965,None,642.8392584999965,None,642.8392584999965,None,642.8392584999965,None,right,0,8.401815000004717,643.3444281999982,None,651.7884146999859,None,001,137,2019_Aug_10_0851,ninosDelConv2,3.1.5,60.6757457786095,
,,,10,0,61.0,89,,,,,0,80,80,22,,,,,,,,,,,,,,,,,,,,,,,,,,,,,,,,,,,,,,,,,,,,,,,,,,,,,,,,,,,,,,,,,,,,654.7961854999885,None,654.7961854999885,None,654.7961854999885,None,654.7961854999885,None,654.7961854999885,None,left,1,5.18132489999698,655.2926942999911,None,660.5021593999991,None,001,137,2019_Aug_10_0851,ninosDelConv2,3.1.5,60.6757457786095,
,,,5,0,151.0,150,,,,,0,81,81,59,,,,,,,,,,,,,,,,,,,,,,,,,,,,,,,,,,,,,,,,,,,,,,,,,,,,,,,,,,,,,,,,,,,,663.5155475999927,None,663.5155475999927,None,663.5155475999927,None,663.5155475999927,None,663.5155475999927,None,left,1,2.046563600000809,664.0071757999976,None,666.0733369999944,None,001,137,2019_Aug_10_0851,ninosDelConv2,3.1.5,60.6757457786095,
,,,25,0,35.0,150,,,,,0,82,82,85,,,,,,,,,,,,,,,,,,,,,,,,,,,,,,,,,,,,,,,,,,,,,,,,,,,,,,,,,,,,,,,,,,,,669.0725361999939,None,669.0725361999939,None,669.0725361999939,None,669.0725361999939,None,669.0725361999939,None,right,0,1.0392705999984173,669.5885717999918,None,670.6648139999888,None,001,137,2019_Aug_10_0851,ninosDelConv2,3.1.5,60.6757457786095,
,,,10,0,150.0,5,,,,,0,83,83,4,,,,,,,,,,,,,,,,,,,,,,,,,,,,,,,,,,,,,,,,,,,,,,,,,,,,,,,,,,,,,,,,,,,,673.6789107999939,None,673.6789107999939,None,673.6789107999939,None,673.6789107999939,None,673.6789107999939,None,right,1,1.2371090999949956,674.1716236999928,None,675.4435694999993,None,001,137,2019_Aug_10_0851,ninosDelConv2,3.1.5,60.6757457786095,
,,,25,0,150.0,9,,,,,0,84,84,69,,,,,,,,,,,,,,,,,,,,,,,,,,,,,,,,,,,,,,,,,,,,,,,,,,,,,,,,,,,,,,,,,,,,678.4384300999955,None,678.4384300999955,None,678.4384300999955,None,678.4384300999955,None,678.4384300999955,None,right,1,1.0198881000105757,678.9548610999918,None,680.0041893999878,None,001,137,2019_Aug_10_0851,ninosDelConv2,3.1.5,60.6757457786095,
,,,5,0,16.0,4,,,,,0,85,85,30,,,,,,,,,,,,,,,,,,,,,,,,,,,,,,,,,,,,,,,,,,,,,,,,,,,,,,,,,,,,,,,,,,,,683.0263027999899,None,683.0263027999899,None,683.0263027999899,None,683.0263027999899,None,683.0263027999899,None,right,1,1.283950900004129,683.5203774999973,None,684.8210533999954,None,001,137,2019_Aug_10_0851,ninosDelConv2,3.1.5,60.6757457786095,
,,,25,0,150.0,4,,,,,0,86,86,64,,,,,,,,,,,,,,,,,,,,,,,,,,,,,,,,,,,,,,,,,,,,,,,,,,,,,,,,,,,,,,,,,,,,687.8179758999904,None,687.8179758999904,None,687.8179758999904,None,687.8179758999904,None,687.8179758999904,None,right,1,1.4885607999895,688.3356440999924,None,689.8531187999906,None,001,137,2019_Aug_10_0851,ninosDelConv2,3.1.5,60.6757457786095,
,,,25,0,150.0,150,,,,,0,87,87,89,,,,,,,,,,,,,,,,,,,,,,,,,,,,,,,,,,,,,,,,,,,,,,,,,,,,,,,,,,,,,,,,,,,,692.8629820999922,None,692.8629820999922,None,692.8629820999922,None,692.8629820999922,None,692.8629820999922,None,left,0,1.1556492999952752,693.3676209999976,None,694.5615211999975,None,001,137,2019_Aug_10_0851,ninosDelConv2,3.1.5,60.6757457786095,
,,,10,0,21.0,31,,,,,0,88,88,10,,,,,,,,,,,,,,,,,,,,,,,,,,,,,,,,,,,,,,,,,,,,,,,,,,,,,,,,,,,,,,,,,,,,697.5761319999874,None,697.5761319999874,None,697.5761319999874,None,697.5761319999874,None,697.5761319999874,None,left,0,3.1324224000127288,698.0677524999919,None,701.2179371999955,None,001,137,2019_Aug_10_0851,ninosDelConv2,3.1.5,60.6757457786095,
,,,25,0,125.0,4,,,,,0,89,89,63,,,,,,,,,,,,,,,,,,,,,,,,,,,,,,,,,,,,,,,,,,,,,,,,,,,,,,,,,,,,,,,,,,,,704.2324350999988,None,704.2324350999988,None,704.2324350999988,None,704.2324350999988,None,704.2324350999988,None,left,1,1.4021858000050997,704.7329377999995,None,706.17292859999,None,001,137,2019_Aug_10_0851,ninosDelConv2,3.1.5,60.6757457786095,
