ssAmount,llAmount,llDelay,ss_am,ss_del,ll_am,ll_del,Practice.thisRepN,Practice.thisTrialN,Practice.thisN,Practice.thisIndex,trials.thisRepN,trials.thisTrialN,trials.thisN,trials.thisIndex,key1.keys,key1.rt,key2.keys,key2.rt,key2_2.keys,key2_2.rt,key2_3.keys,key2_3.rt,key3.keys,key3.rt,key4.keys,key4.rt,respP.keys,respP.corr,respP.rt,key5.keys,key5.rt,respT.keys,respT.corr,respT.rt,key_resp_4.keys,key_resp_4.rt,session,psychopyVersion,frameRate,expName,date,participant,
,,,,,,,,,,,,,,,space,18.1154642545,,,,,,,,,,,,,,,,,,,,,001,3.0.3,60.230853028720986,ninosDelConv2,2019_Aug_10_0844,192,
,,,,,,,,,,,,,,,,,space,18.263179377,,,,,,,,,,,,,,,,,,,001,3.0.3,60.230853028720986,ninosDelConv2,2019_Aug_10_0844,192,
,,,,,,,,,,,,,,,,,,,space,17.7483066983,,,,,,,,,,,,,,,,,001,3.0.3,60.230853028720986,ninosDelConv2,2019_Aug_10_0844,192,
,,,,,,,,,,,,,,,,,,,,,space,6.81733264378,,,,,,,,,,,,,,,001,3.0.3,60.230853028720986,ninosDelConv2,2019_Aug_10_0844,192,
,,,,,,,,,,,,,,,,,,,,,,,right,13.2310667903,,,,,,,,,,,,,001,3.0.3,60.230853028720986,ninosDelConv2,2019_Aug_10_0844,192,
,,,,,,,,,,,,,,,,,,,,,,,,,space,4.41689816338,,,,,,,,,,,001,3.0.3,60.230853028720986,ninosDelConv2,2019_Aug_10_0844,192,
10,109,9,,,,,0,0,0,0,,,,,,,,,,,,,,,,,left,1,4.50012285949,,,,,,,,001,3.0.3,60.230853028720986,ninosDelConv2,2019_Aug_10_0844,192,
10,19,89,,,,,0,1,1,2,,,,,,,,,,,,,,,,,left,0,10.2160897583,,,,,,,,001,3.0.3,60.230853028720986,ninosDelConv2,2019_Aug_10_0844,192,
25,35,150,,,,,0,2,2,1,,,,,,,,,,,,,,,,,right,0,4.78339926957,,,,,,,,001,3.0.3,60.230853028720986,ninosDelConv2,2019_Aug_10_0844,192,
,,,,,,,,,,,,,,,,,,,,,,,,,,,,,,g,29.4121266924,,,,,,001,3.0.3,60.230853028720986,ninosDelConv2,2019_Aug_10_0844,192,
,,,10,0,110.0,60,,,,,0,0,0,18,,,,,,,,,,,,,,,,,,right,1,9.73246142524,,,001,3.0.3,60.230853028720986,ninosDelConv2,2019_Aug_10_0844,192,
,,,25,0,125.0,59,,,,,0,1,1,78,,,,,,,,,,,,,,,,,,left,0,13.5985363787,,,001,3.0.3,60.230853028720986,ninosDelConv2,2019_Aug_10_0844,192,
,,,5,0,104.0,5,,,,,0,2,2,33,,,,,,,,,,,,,,,,,,left,1,2.84983694134,,,001,3.0.3,60.230853028720986,ninosDelConv2,2019_Aug_10_0844,192,
,,,25,0,125.0,31,,,,,0,3,3,73,,,,,,,,,,,,,,,,,,None,0,,,,001,3.0.3,60.230853028720986,ninosDelConv2,2019_Aug_10_0844,192,
,,,5,0,35.0,150,,,,,0,4,4,56,,,,,,,,,,,,,,,,,,left,0,5.59932802548,,,001,3.0.3,60.230853028720986,ninosDelConv2,2019_Aug_10_0844,192,
,,,25,0,75.0,90,,,,,0,5,5,82,,,,,,,,,,,,,,,,,,left,0,4.80076769169,,,001,3.0.3,60.230853028720986,ninosDelConv2,2019_Aug_10_0844,192,
,,,25,0,35.0,5,,,,,0,6,6,60,,,,,,,,,,,,,,,,,,right,1,7.73286701576,,,001,3.0.3,60.230853028720986,ninosDelConv2,2019_Aug_10_0844,192,
,,,10,0,39.0,6,,,,,0,7,7,1,,,,,,,,,,,,,,,,,,right,1,3.98358001187,,,001,3.0.3,60.230853028720986,ninosDelConv2,2019_Aug_10_0844,192,
,,,10,0,61.0,89,,,,,0,8,8,22,,,,,,,,,,,,,,,,,,left,0,5.24932555808,,,001,3.0.3,60.230853028720986,ninosDelConv2,2019_Aug_10_0844,192,
,,,25,0,35.0,90,,,,,0,9,9,80,,,,,,,,,,,,,,,,,,left,0,3.3505417126,,,001,3.0.3,60.230853028720986,ninosDelConv2,2019_Aug_10_0844,192,
,,,5,0,104.0,10,,,,,0,10,10,38,,,,,,,,,,,,,,,,,,right,1,4.8838037292,,,001,3.0.3,60.230853028720986,ninosDelConv2,2019_Aug_10_0844,192,
,,,10,0,20.0,5,,,,,0,11,11,0,,,,,,,,,,,,,,,,,,right,1,5.03366041032,,,001,3.0.3,60.230853028720986,ninosDelConv2,2019_Aug_10_0844,192,
,,,25,0,125.0,9,,,,,0,12,12,68,,,,,,,,,,,,,,,,,,left,1,3.01829320949,,,001,3.0.3,60.230853028720986,ninosDelConv2,2019_Aug_10_0844,192,
,,,5,0,151.0,4,,,,,0,13,13,34,,,,,,,,,,,,,,,,,,right,1,3.26776424551,,,001,3.0.3,60.230853028720986,ninosDelConv2,2019_Aug_10_0844,192,
,,,5,0,15.0,11,,,,,0,14,14,35,,,,,,,,,,,,,,,,,,right,1,7.49867167836,,,001,3.0.3,60.230853028720986,ninosDelConv2,2019_Aug_10_0844,192,
,,,25,0,150.0,150,,,,,0,15,15,89,,,,,,,,,,,,,,,,,,left,0,11.3316033623,,,001,3.0.3,60.230853028720986,ninosDelConv2,2019_Aug_10_0844,192,
,,,25,0,150.0,29,,,,,0,16,16,74,,,,,,,,,,,,,,,,,,left,1,9.30021765141,,,001,3.0.3,60.230853028720986,ninosDelConv2,2019_Aug_10_0844,192,
,,,25,0,35.0,150,,,,,0,17,17,85,,,,,,,,,,,,,,,,,,left,0,6.35049184912,,,001,3.0.3,60.230853028720986,ninosDelConv2,2019_Aug_10_0844,192,
,,,10,0,61.0,4,,,,,0,18,18,2,,,,,,,,,,,,,,,,,,right,1,2.9162293761,,,001,3.0.3,60.230853028720986,ninosDelConv2,2019_Aug_10_0844,192,
,,,10,0,150.0,30,,,,,0,19,19,14,,,,,,,,,,,,,,,,,,right,1,1.93414269795,,,001,3.0.3,60.230853028720986,ninosDelConv2,2019_Aug_10_0844,192,
,,,5,0,149.0,10,,,,,0,20,20,39,,,,,,,,,,,,,,,,,,left,1,3.11517535488,,,001,3.0.3,60.230853028720986,ninosDelConv2,2019_Aug_10_0844,192,
,,,25,0,75.0,31,,,,,0,21,21,72,,,,,,,,,,,,,,,,,,left,1,5.14937706653,,,001,3.0.3,60.230853028720986,ninosDelConv2,2019_Aug_10_0844,192,
,,,10,0,59.0,9,,,,,0,22,22,7,,,,,,,,,,,,,,,,,,right,1,3.4992376545,,,001,3.0.3,60.230853028720986,ninosDelConv2,2019_Aug_10_0844,192,
,,,25,0,125.0,4,,,,,0,23,23,63,,,,,,,,,,,,,,,,,,left,1,3.54901321745,,,001,3.0.3,60.230853028720986,ninosDelConv2,2019_Aug_10_0844,192,
,,,10,0,39.0,29,,,,,0,24,24,11,,,,,,,,,,,,,,,,,,right,0,4.96552686661,,,001,3.0.3,60.230853028720986,ninosDelConv2,2019_Aug_10_0844,192,
,,,25,0,125.0,89,,,,,0,25,25,83,,,,,,,,,,,,,,,,,,left,0,2.74885571061,,,001,3.0.3,60.230853028720986,ninosDelConv2,2019_Aug_10_0844,192,
,,,10,0,149.0,61,,,,,0,26,26,19,,,,,,,,,,,,,,,,,,right,0,4.11514965212,,,001,3.0.3,60.230853028720986,ninosDelConv2,2019_Aug_10_0844,192,
,,,10,0,40.0,10,,,,,0,27,27,6,,,,,,,,,,,,,,,,,,right,1,2.78309803258,,,001,3.0.3,60.230853028720986,ninosDelConv2,2019_Aug_10_0844,192,
,,,25,0,150.0,4,,,,,0,28,28,64,,,,,,,,,,,,,,,,,,right,1,2.48306698364,,,001,3.0.3,60.230853028720986,ninosDelConv2,2019_Aug_10_0844,192,
,,,25,0,75.0,151,,,,,0,29,29,87,,,,,,,,,,,,,,,,,,right,0,4.38227646775,,,001,3.0.3,60.230853028720986,ninosDelConv2,2019_Aug_10_0844,192,
,,,25,0,150.0,89,,,,,0,30,30,84,,,,,,,,,,,,,,,,,,left,0,4.09865512571,,,001,3.0.3,60.230853028720986,ninosDelConv2,2019_Aug_10_0844,192,
,,,10,0,109.0,5,,,,,0,31,31,3,,,,,,,,,,,,,,,,,,right,1,1.90122972557,,,001,3.0.3,60.230853028720986,ninosDelConv2,2019_Aug_10_0844,192,
,,,25,0,55.0,11,,,,,0,32,32,66,,,,,,,,,,,,,,,,,,left,1,5.19873110333,,,001,3.0.3,60.230853028720986,ninosDelConv2,2019_Aug_10_0844,192,
,,,5,0,35.0,89,,,,,0,33,33,51,,,,,,,,,,,,,,,,,,right,0,2.73352192342,,,001,3.0.3,60.230853028720986,ninosDelConv2,2019_Aug_10_0844,192,
,,,5,0,150.0,30,,,,,0,34,34,44,,,,,,,,,,,,,,,,,,right,1,4.9982501521,,,001,3.0.3,60.230853028720986,ninosDelConv2,2019_Aug_10_0844,192,
,,,25,0,75.0,5,,,,,0,35,35,62,,,,,,,,,,,,,,,,,,left,1,3.03548531036,,,001,3.0.3,60.230853028720986,ninosDelConv2,2019_Aug_10_0844,192,
,,,5,0,151.0,150,,,,,0,36,36,59,,,,,,,,,,,,,,,,,,right,1,9.29850738589,,,001,3.0.3,60.230853028720986,ninosDelConv2,2019_Aug_10_0844,192,
,,,10,0,109.0,149,,,,,0,37,37,28,,,,,,,,,,,,,,,,,,right,0,3.40028489009,,,001,3.0.3,60.230853028720986,ninosDelConv2,2019_Aug_10_0844,192,
,,,5,0,15.0,61,,,,,0,38,38,45,,,,,,,,,,,,,,,,,,right,0,3.96557364578,,,001,3.0.3,60.230853028720986,ninosDelConv2,2019_Aug_10_0844,192,
,,,25,0,55.0,30,,,,,0,39,39,71,,,,,,,,,,,,,,,,,,right,0,3.40061440016,,,001,3.0.3,60.230853028720986,ninosDelConv2,2019_Aug_10_0844,192,
,,,5,0,35.0,6,,,,,0,40,40,31,,,,,,,,,,,,,,,,,,left,1,2.61716064054,,,001,3.0.3,60.230853028720986,ninosDelConv2,2019_Aug_10_0844,192,
,,,10,0,149.0,89,,,,,0,41,41,24,,,,,,,,,,,,,,,,,,right,0,5.50017734943,,,001,3.0.3,60.230853028720986,ninosDelConv2,2019_Aug_10_0844,192,
,,,5,0,56.0,29,,,,,0,42,42,42,,,,,,,,,,,,,,,,,,left,1,4.03479184839,,,001,3.0.3,60.230853028720986,ninosDelConv2,2019_Aug_10_0844,192,
,,,25,0,55.0,6,,,,,0,43,43,61,,,,,,,,,,,,,,,,,,right,1,3.91742507112,,,001,3.0.3,60.230853028720986,ninosDelConv2,2019_Aug_10_0844,192,
,,,25,0,35.0,60,,,,,0,44,44,75,,,,,,,,,,,,,,,,,,left,0,7.88304806629,,,001,3.0.3,60.230853028720986,ninosDelConv2,2019_Aug_10_0844,192,
,,,5,0,14.0,31,,,,,0,45,45,40,,,,,,,,,,,,,,,,,,right,0,4.66646584193,,,001,3.0.3,60.230853028720986,ninosDelConv2,2019_Aug_10_0844,192,
,,,10,0,39.0,150,,,,,0,46,46,26,,,,,,,,,,,,,,,,,,right,0,3.56715221005,,,001,3.0.3,60.230853028720986,ninosDelConv2,2019_Aug_10_0844,192,
,,,25,0,75.0,59,,,,,0,47,47,77,,,,,,,,,,,,,,,,,,right,1,5.61511006975,,,001,3.0.3,60.230853028720986,ninosDelConv2,2019_Aug_10_0844,192,
,,,10,0,10.01,150,,,,,0,48,48,25,,,,,,,,,,,,,,,,,,left,0,4.93281334813,,,001,3.0.3,60.230853028720986,ninosDelConv2,2019_Aug_10_0844,192,
,,,10,0,39.0,59,,,,,0,49,49,16,,,,,,,,,,,,,,,,,,right,1,12.864601668,,,001,3.0.3,60.230853028720986,ninosDelConv2,2019_Aug_10_0844,192,
,,,10,0,111.0,30,,,,,0,50,50,13,,,,,,,,,,,,,,,,,,left,1,3.4500753606,,,001,3.0.3,60.230853028720986,ninosDelConv2,2019_Aug_10_0844,192,
,,,5,0,35.0,31,,,,,0,51,51,41,,,,,,,,,,,,,,,,,,left,1,2.61585236713,,,001,3.0.3,60.230853028720986,ninosDelConv2,2019_Aug_10_0844,192,
,,,25,0,55.0,151,,,,,0,52,52,86,,,,,,,,,,,,,,,,,,right,0,2.18520268216,,,001,3.0.3,60.230853028720986,ninosDelConv2,2019_Aug_10_0844,192,
,,,5,0,106.0,152,,,,,0,53,53,58,,,,,,,,,,,,,,,,,,right,0,2.71670405567,,,001,3.0.3,60.230853028720986,ninosDelConv2,2019_Aug_10_0844,192,
,,,5,0,14.0,149,,,,,0,54,54,55,,,,,,,,,,,,,,,,,,left,0,2.13319045992,,,001,3.0.3,60.230853028720986,ninosDelConv2,2019_Aug_10_0844,192,
,,,10,0,60.0,60,,,,,0,55,55,17,,,,,,,,,,,,,,,,,,right,1,1.73285519239,,,001,3.0.3,60.230853028720986,ninosDelConv2,2019_Aug_10_0844,192,
,,,10,0,20.0,59,,,,,0,56,56,15,,,,,,,,,,,,,,,,,,right,0,2.99896263424,,,001,3.0.3,60.230853028720986,ninosDelConv2,2019_Aug_10_0844,192,
,,,5,0,36.0,9,,,,,0,57,57,36,,,,,,,,,,,,,,,,,,left,1,2.55074404518,,,001,3.0.3,60.230853028720986,ninosDelConv2,2019_Aug_10_0844,192,
,,,10,0,60.0,29,,,,,0,58,58,12,,,,,,,,,,,,,,,,,,right,1,4.01556305622,,,001,3.0.3,60.230853028720986,ninosDelConv2,2019_Aug_10_0844,192,
,,,10,0,150.0,5,,,,,0,59,59,4,,,,,,,,,,,,,,,,,,left,1,3.19911510334,,,001,3.0.3,60.230853028720986,ninosDelConv2,2019_Aug_10_0844,192,
,,,5,0,54.0,5,,,,,0,60,60,32,,,,,,,,,,,,,,,,,,right,1,2.40122407104,,,001,3.0.3,60.230853028720986,ninosDelConv2,2019_Aug_10_0844,192,
,,,5,0,150.0,90,,,,,0,61,61,54,,,,,,,,,,,,,,,,,,right,1,2.35093445168,,,001,3.0.3,60.230853028720986,ninosDelConv2,2019_Aug_10_0844,192,
,,,25,0,150.0,9,,,,,0,62,62,69,,,,,,,,,,,,,,,,,,left,1,3.23386171472,,,001,3.0.3,60.230853028720986,ninosDelConv2,2019_Aug_10_0844,192,
,,,25,0,150.0,61,,,,,0,63,63,79,,,,,,,,,,,,,,,,,,left,1,4.19934437261,,,001,3.0.3,60.230853028720986,ninosDelConv2,2019_Aug_10_0844,192,
,,,10,0,20.0,90,,,,,0,64,64,20,,,,,,,,,,,,,,,,,,right,0,3.86753590172,,,001,3.0.3,60.230853028720986,ninosDelConv2,2019_Aug_10_0844,192,
,,,5,0,56.0,9,,,,,0,65,65,37,,,,,,,,,,,,,,,,,,right,1,4.1509737256,,,001,3.0.3,60.230853028720986,ninosDelConv2,2019_Aug_10_0844,192,
,,,10,0,21.0,31,,,,,0,66,66,10,,,,,,,,,,,,,,,,,,left,0,4.2820966508,,,001,3.0.3,60.230853028720986,ninosDelConv2,2019_Aug_10_0844,192,
,,,25,0,75.0,10,,,,,0,67,67,67,,,,,,,,,,,,,,,,,,left,1,2.38309895783,,,001,3.0.3,60.230853028720986,ninosDelConv2,2019_Aug_10_0844,192,
,,,5,0,15.0,91,,,,,0,68,68,50,,,,,,,,,,,,,,,,,,left,0,6.38152800163,,,001,3.0.3,60.230853028720986,ninosDelConv2,2019_Aug_10_0844,192,
,,,10,0,151.0,11,,,,,0,69,69,9,,,,,,,,,,,,,,,,,,left,1,2.73623716913,,,001,3.0.3,60.230853028720986,ninosDelConv2,2019_Aug_10_0844,192,
,,,25,0,55.0,60,,,,,0,70,70,76,,,,,,,,,,,,,,,,,,left,0,4.2002295776,,,001,3.0.3,60.230853028720986,ninosDelConv2,2019_Aug_10_0844,192,
,,,10,0,40.0,91,,,,,0,71,71,21,,,,,,,,,,,,,,,,,,right,1,4.30019708921,,,001,3.0.3,60.230853028720986,ninosDelConv2,2019_Aug_10_0844,192,
,,,5,0,55.0,151,,,,,0,72,72,57,,,,,,,,,,,,,,,,,,right,0,3.03280245024,,,001,3.0.3,60.230853028720986,ninosDelConv2,2019_Aug_10_0844,192,
,,,5,0,149.0,59,,,,,0,73,73,49,,,,,,,,,,,,,,,,,,right,1,2.23416912043,,,001,3.0.3,60.230853028720986,ninosDelConv2,2019_Aug_10_0844,192,
,,,10,0,110.0,90,,,,,0,74,74,23,,,,,,,,,,,,,,,,,,right,1,2.21655395126,,,001,3.0.3,60.230853028720986,ninosDelConv2,2019_Aug_10_0844,192,
,,,10,0,151.0,151,,,,,0,75,75,29,,,,,,,,,,,,,,,,,,left,1,7.26534201193,,,001,3.0.3,60.230853028720986,ninosDelConv2,2019_Aug_10_0844,192,
,,,10,0,111.0,10,,,,,0,76,76,8,,,,,,,,,,,,,,,,,,right,1,3.04843541805,,,001,3.0.3,60.230853028720986,ninosDelConv2,2019_Aug_10_0844,192,
,,,10,0,19.0,11,,,,,0,77,77,5,,,,,,,,,,,,,,,,,,right,0,5.44965434854,,,001,3.0.3,60.230853028720986,ninosDelConv2,2019_Aug_10_0844,192,
,,,5,0,105.0,60,,,,,0,78,78,48,,,,,,,,,,,,,,,,,,right,1,5.36671958014,,,001,3.0.3,60.230853028720986,ninosDelConv2,2019_Aug_10_0844,192,
,,,5,0,56.0,89,,,,,0,79,79,52,,,,,,,,,,,,,,,,,,right,1,4.50124967098,,,001,3.0.3,60.230853028720986,ninosDelConv2,2019_Aug_10_0844,192,
,,,25,0,35.0,11,,,,,0,80,80,65,,,,,,,,,,,,,,,,,,right,1,3.44982912764,,,001,3.0.3,60.230853028720986,ninosDelConv2,2019_Aug_10_0844,192,
,,,5,0,36.0,61,,,,,0,81,81,46,,,,,,,,,,,,,,,,,,right,1,8.91539968911,,,001,3.0.3,60.230853028720986,ninosDelConv2,2019_Aug_10_0844,192,
,,,25,0,125.0,149,,,,,0,82,82,88,,,,,,,,,,,,,,,,,,right,1,4.14970400627,,,001,3.0.3,60.230853028720986,ninosDelConv2,2019_Aug_10_0844,192,
,,,25,0,35.0,30,,,,,0,83,83,70,,,,,,,,,,,,,,,,,,right,0,5.55108126614,,,001,3.0.3,60.230853028720986,ninosDelConv2,2019_Aug_10_0844,192,
,,,25,0,55.0,90,,,,,0,84,84,81,,,,,,,,,,,,,,,,,,right,0,17.1642317531,,,001,3.0.3,60.230853028720986,ninosDelConv2,2019_Aug_10_0844,192,
,,,10,0,61.0,150,,,,,0,85,85,27,,,,,,,,,,,,,,,,,,right,0,4.73358052596,,,001,3.0.3,60.230853028720986,ninosDelConv2,2019_Aug_10_0844,192,
,,,5,0,104.0,90,,,,,0,86,86,53,,,,,,,,,,,,,,,,,,left,1,3.93403371796,,,001,3.0.3,60.230853028720986,ninosDelConv2,2019_Aug_10_0844,192,
,,,5,0,16.0,4,,,,,0,87,87,30,,,,,,,,,,,,,,,,,,left,1,3.04969845456,,,001,3.0.3,60.230853028720986,ninosDelConv2,2019_Aug_10_0844,192,
,,,5,0,56.0,60,,,,,0,88,88,47,,,,,,,,,,,,,,,,,,left,1,3.81675741472,,,001,3.0.3,60.230853028720986,ninosDelConv2,2019_Aug_10_0844,192,
,,,5,0,106.0,29,,,,,0,89,89,43,,,,,,,,,,,,,,,,,,left,1,1.88382686174,,,001,3.0.3,60.230853028720986,ninosDelConv2,2019_Aug_10_0844,192,
,,,,,,,,,,,,,,,,,,,,,,,,,,,,,,,,,,,space,361.366060046,001,3.0.3,60.230853028720986,ninosDelConv2,2019_Aug_10_0844,192,
