ssAmount,llAmount,llDelay,ss_am,ss_del,ll_am,ll_del,Practice.thisRepN,Practice.thisTrialN,Practice.thisN,Practice.thisIndex,trials.thisRepN,trials.thisTrialN,trials.thisN,trials.thisIndex,key1.keys,key1.rt,key2.keys,key2.rt,key2_2.keys,key2_2.rt,key2_3.keys,key2_3.rt,key3.keys,key3.rt,key4.keys,key4.rt,respP.keys,respP.corr,respP.rt,key5.keys,key5.rt,respT.keys,respT.corr,respT.rt,key_resp_4.keys,key_resp_4.rt,session,psychopyVersion,frameRate,expName,date,participant,
,,,,,,,,,,,,,,,space,4.31693289627,,,,,,,,,,,,,,,,,,,,,001,3.0.3,60.23986770876484,ninosDelConv2,2019_Aug_10_0906,239,
,,,,,,,,,,,,,,,,,space,20.9798500397,,,,,,,,,,,,,,,,,,,001,3.0.3,60.23986770876484,ninosDelConv2,2019_Aug_10_0906,239,
,,,,,,,,,,,,,,,,,,,space,13.9631663577,,,,,,,,,,,,,,,,,001,3.0.3,60.23986770876484,ninosDelConv2,2019_Aug_10_0906,239,
,,,,,,,,,,,,,,,,,,,,,space,4.99942322937,,,,,,,,,,,,,,,001,3.0.3,60.23986770876484,ninosDelConv2,2019_Aug_10_0906,239,
,,,,,,,,,,,,,,,,,,,,,,,left,5.64901090518,,,,,,,,,,,,,001,3.0.3,60.23986770876484,ninosDelConv2,2019_Aug_10_0906,239,
,,,,,,,,,,,,,,,,,,,,,,,,,space,2.23385890399,,,,,,,,,,,001,3.0.3,60.23986770876484,ninosDelConv2,2019_Aug_10_0906,239,
10,19,89,,,,,0,0,0,2,,,,,,,,,,,,,,,,,left,1,6.3174885906,,,,,,,,001,3.0.3,60.23986770876484,ninosDelConv2,2019_Aug_10_0906,239,
10,109,9,,,,,0,1,1,0,,,,,,,,,,,,,,,,,left,1,4.4507035882,,,,,,,,001,3.0.3,60.23986770876484,ninosDelConv2,2019_Aug_10_0906,239,
25,35,150,,,,,0,2,2,1,,,,,,,,,,,,,,,,,right,0,4.84941762616,,,,,,,,001,3.0.3,60.23986770876484,ninosDelConv2,2019_Aug_10_0906,239,
,,,,,,,,,,,,,,,,,,,,,,,,,,,,,,g,32.161439233,,,,,,001,3.0.3,60.23986770876484,ninosDelConv2,2019_Aug_10_0906,239,
,,,5,0,15.0,91,,,,,0,0,0,50,,,,,,,,,,,,,,,,,,right,0,5.09990366595,,,001,3.0.3,60.23986770876484,ninosDelConv2,2019_Aug_10_0906,239,
,,,25,0,35.0,5,,,,,0,1,1,60,,,,,,,,,,,,,,,,,,right,0,3.64940929844,,,001,3.0.3,60.23986770876484,ninosDelConv2,2019_Aug_10_0906,239,
,,,10,0,151.0,11,,,,,0,2,2,9,,,,,,,,,,,,,,,,,,left,1,2.45051287347,,,001,3.0.3,60.23986770876484,ninosDelConv2,2019_Aug_10_0906,239,
,,,5,0,14.0,31,,,,,0,3,3,40,,,,,,,,,,,,,,,,,,right,0,2.53367168491,,,001,3.0.3,60.23986770876484,ninosDelConv2,2019_Aug_10_0906,239,
,,,25,0,55.0,30,,,,,0,4,4,71,,,,,,,,,,,,,,,,,,right,1,3.13340776856,,,001,3.0.3,60.23986770876484,ninosDelConv2,2019_Aug_10_0906,239,
,,,10,0,21.0,31,,,,,0,5,5,10,,,,,,,,,,,,,,,,,,left,1,5.29904580954,,,001,3.0.3,60.23986770876484,ninosDelConv2,2019_Aug_10_0906,239,
,,,25,0,55.0,90,,,,,0,6,6,81,,,,,,,,,,,,,,,,,,left,0,4.83224816143,,,001,3.0.3,60.23986770876484,ninosDelConv2,2019_Aug_10_0906,239,
,,,5,0,16.0,4,,,,,0,7,7,30,,,,,,,,,,,,,,,,,,right,1,2.28357067297,,,001,3.0.3,60.23986770876484,ninosDelConv2,2019_Aug_10_0906,239,
,,,10,0,61.0,150,,,,,0,8,8,27,,,,,,,,,,,,,,,,,,right,1,2.61687933153,,,001,3.0.3,60.23986770876484,ninosDelConv2,2019_Aug_10_0906,239,
,,,10,0,61.0,4,,,,,0,9,9,2,,,,,,,,,,,,,,,,,,left,1,2.05023970432,,,001,3.0.3,60.23986770876484,ninosDelConv2,2019_Aug_10_0906,239,
,,,5,0,150.0,30,,,,,0,10,10,44,,,,,,,,,,,,,,,,,,right,1,3.96732352721,,,001,3.0.3,60.23986770876484,ninosDelConv2,2019_Aug_10_0906,239,
,,,5,0,150.0,90,,,,,0,11,11,54,,,,,,,,,,,,,,,,,,right,1,1.45026972506,,,001,3.0.3,60.23986770876484,ninosDelConv2,2019_Aug_10_0906,239,
,,,5,0,35.0,6,,,,,0,12,12,31,,,,,,,,,,,,,,,,,,right,0,2.30137036997,,,001,3.0.3,60.23986770876484,ninosDelConv2,2019_Aug_10_0906,239,
,,,25,0,75.0,151,,,,,0,13,13,87,,,,,,,,,,,,,,,,,,left,0,4.25034107605,,,001,3.0.3,60.23986770876484,ninosDelConv2,2019_Aug_10_0906,239,
,,,5,0,35.0,89,,,,,0,14,14,51,,,,,,,,,,,,,,,,,,right,0,2.44960556505,,,001,3.0.3,60.23986770876484,ninosDelConv2,2019_Aug_10_0906,239,
,,,10,0,60.0,29,,,,,0,15,15,12,,,,,,,,,,,,,,,,,,left,1,2.06619959546,,,001,3.0.3,60.23986770876484,ninosDelConv2,2019_Aug_10_0906,239,
,,,10,0,40.0,91,,,,,0,16,16,21,,,,,,,,,,,,,,,,,,right,1,3.91727607988,,,001,3.0.3,60.23986770876484,ninosDelConv2,2019_Aug_10_0906,239,
,,,25,0,150.0,29,,,,,0,17,17,74,,,,,,,,,,,,,,,,,,left,1,2.84955950559,,,001,3.0.3,60.23986770876484,ninosDelConv2,2019_Aug_10_0906,239,
,,,10,0,111.0,30,,,,,0,18,18,13,,,,,,,,,,,,,,,,,,left,1,3.21657531895,,,001,3.0.3,60.23986770876484,ninosDelConv2,2019_Aug_10_0906,239,
,,,5,0,56.0,89,,,,,0,19,19,52,,,,,,,,,,,,,,,,,,left,1,2.18333132856,,,001,3.0.3,60.23986770876484,ninosDelConv2,2019_Aug_10_0906,239,
,,,5,0,149.0,59,,,,,0,20,20,49,,,,,,,,,,,,,,,,,,right,1,3.56726009271,,,001,3.0.3,60.23986770876484,ninosDelConv2,2019_Aug_10_0906,239,
,,,25,0,55.0,6,,,,,0,21,21,61,,,,,,,,,,,,,,,,,,right,0,4.5665291053,,,001,3.0.3,60.23986770876484,ninosDelConv2,2019_Aug_10_0906,239,
,,,5,0,35.0,31,,,,,0,22,22,41,,,,,,,,,,,,,,,,,,right,0,2.46665165632,,,001,3.0.3,60.23986770876484,ninosDelConv2,2019_Aug_10_0906,239,
,,,10,0,10.01,150,,,,,0,23,23,25,,,,,,,,,,,,,,,,,,left,0,11.8654571961,,,001,3.0.3,60.23986770876484,ninosDelConv2,2019_Aug_10_0906,239,
,,,25,0,35.0,90,,,,,0,24,24,80,,,,,,,,,,,,,,,,,,right,1,3.04915401828,,,001,3.0.3,60.23986770876484,ninosDelConv2,2019_Aug_10_0906,239,
,,,10,0,20.0,90,,,,,0,25,25,20,,,,,,,,,,,,,,,,,,right,0,2.4502234601,,,001,3.0.3,60.23986770876484,ninosDelConv2,2019_Aug_10_0906,239,
,,,25,0,125.0,149,,,,,0,26,26,88,,,,,,,,,,,,,,,,,,left,0,1.88350055565,,,001,3.0.3,60.23986770876484,ninosDelConv2,2019_Aug_10_0906,239,
,,,5,0,15.0,61,,,,,0,27,27,45,,,,,,,,,,,,,,,,,,right,0,4.06581148331,,,001,3.0.3,60.23986770876484,ninosDelConv2,2019_Aug_10_0906,239,
,,,25,0,150.0,9,,,,,0,28,28,69,,,,,,,,,,,,,,,,,,left,1,2.83449561358,,,001,3.0.3,60.23986770876484,ninosDelConv2,2019_Aug_10_0906,239,
,,,10,0,40.0,10,,,,,0,29,29,6,,,,,,,,,,,,,,,,,,right,1,3.25047884299,,,001,3.0.3,60.23986770876484,ninosDelConv2,2019_Aug_10_0906,239,
,,,25,0,75.0,10,,,,,0,30,30,67,,,,,,,,,,,,,,,,,,left,1,10.7492507636,,,001,3.0.3,60.23986770876484,ninosDelConv2,2019_Aug_10_0906,239,
,,,5,0,56.0,29,,,,,0,31,31,42,,,,,,,,,,,,,,,,,,left,1,2.31835888699,,,001,3.0.3,60.23986770876484,ninosDelConv2,2019_Aug_10_0906,239,
,,,25,0,150.0,89,,,,,0,32,32,84,,,,,,,,,,,,,,,,,,left,1,8.61633648863,,,001,3.0.3,60.23986770876484,ninosDelConv2,2019_Aug_10_0906,239,
,,,10,0,61.0,89,,,,,0,33,33,22,,,,,,,,,,,,,,,,,,left,0,4.44921539666,,,001,3.0.3,60.23986770876484,ninosDelConv2,2019_Aug_10_0906,239,
,,,25,0,75.0,90,,,,,0,34,34,82,,,,,,,,,,,,,,,,,,right,0,4.38379562378,,,001,3.0.3,60.23986770876484,ninosDelConv2,2019_Aug_10_0906,239,
,,,5,0,104.0,5,,,,,0,35,35,33,,,,,,,,,,,,,,,,,,left,1,1.24977561459,,,001,3.0.3,60.23986770876484,ninosDelConv2,2019_Aug_10_0906,239,
,,,25,0,125.0,31,,,,,0,36,36,73,,,,,,,,,,,,,,,,,,left,1,1.81776258233,,,001,3.0.3,60.23986770876484,ninosDelConv2,2019_Aug_10_0906,239,
,,,25,0,125.0,89,,,,,0,37,37,83,,,,,,,,,,,,,,,,,,left,1,1.23392727342,,,001,3.0.3,60.23986770876484,ninosDelConv2,2019_Aug_10_0906,239,
,,,5,0,149.0,10,,,,,0,38,38,39,,,,,,,,,,,,,,,,,,right,1,1.70149394905,,,001,3.0.3,60.23986770876484,ninosDelConv2,2019_Aug_10_0906,239,
,,,10,0,20.0,5,,,,,0,39,39,0,,,,,,,,,,,,,,,,,,right,0,3.6668003212,,,001,3.0.3,60.23986770876484,ninosDelConv2,2019_Aug_10_0906,239,
,,,25,0,55.0,11,,,,,0,40,40,66,,,,,,,,,,,,,,,,,,right,0,5.11658220727,,,001,3.0.3,60.23986770876484,ninosDelConv2,2019_Aug_10_0906,239,
,,,10,0,39.0,6,,,,,0,41,41,1,,,,,,,,,,,,,,,,,,left,1,1.58456526813,,,001,3.0.3,60.23986770876484,ninosDelConv2,2019_Aug_10_0906,239,
,,,10,0,151.0,151,,,,,0,42,42,29,,,,,,,,,,,,,,,,,,left,1,2.11707981338,,,001,3.0.3,60.23986770876484,ninosDelConv2,2019_Aug_10_0906,239,
,,,5,0,151.0,150,,,,,0,43,43,59,,,,,,,,,,,,,,,,,,right,1,2.38344863604,,,001,3.0.3,60.23986770876484,ninosDelConv2,2019_Aug_10_0906,239,
,,,25,0,75.0,5,,,,,0,44,44,62,,,,,,,,,,,,,,,,,,right,1,1.15236203512,,,001,3.0.3,60.23986770876484,ninosDelConv2,2019_Aug_10_0906,239,
,,,25,0,150.0,61,,,,,0,45,45,79,,,,,,,,,,,,,,,,,,right,1,2.46719141491,,,001,3.0.3,60.23986770876484,ninosDelConv2,2019_Aug_10_0906,239,
,,,10,0,150.0,30,,,,,0,46,46,14,,,,,,,,,,,,,,,,,,right,1,1.21628950397,,,001,3.0.3,60.23986770876484,ninosDelConv2,2019_Aug_10_0906,239,
,,,10,0,39.0,150,,,,,0,47,47,26,,,,,,,,,,,,,,,,,,None,0,,,,001,3.0.3,60.23986770876484,ninosDelConv2,2019_Aug_10_0906,239,
,,,10,0,59.0,9,,,,,0,48,48,7,,,,,,,,,,,,,,,,,,left,1,4.34949781885,,,001,3.0.3,60.23986770876484,ninosDelConv2,2019_Aug_10_0906,239,
,,,5,0,55.0,151,,,,,0,49,49,57,,,,,,,,,,,,,,,,,,left,0,2.34961913608,,,001,3.0.3,60.23986770876484,ninosDelConv2,2019_Aug_10_0906,239,
,,,10,0,150.0,5,,,,,0,50,50,4,,,,,,,,,,,,,,,,,,right,1,5.09876863065,,,001,3.0.3,60.23986770876484,ninosDelConv2,2019_Aug_10_0906,239,
,,,25,0,125.0,59,,,,,0,51,51,78,,,,,,,,,,,,,,,,,,left,1,1.23430870275,,,001,3.0.3,60.23986770876484,ninosDelConv2,2019_Aug_10_0906,239,
,,,25,0,150.0,4,,,,,0,52,52,64,,,,,,,,,,,,,,,,,,left,1,0.716351190698,,,001,3.0.3,60.23986770876484,ninosDelConv2,2019_Aug_10_0906,239,
,,,10,0,19.0,11,,,,,0,53,53,5,,,,,,,,,,,,,,,,,,right,1,1.8503871354,,,001,3.0.3,60.23986770876484,ninosDelConv2,2019_Aug_10_0906,239,
,,,10,0,39.0,59,,,,,0,54,54,16,,,,,,,,,,,,,,,,,,left,1,2.64966581226,,,001,3.0.3,60.23986770876484,ninosDelConv2,2019_Aug_10_0906,239,
,,,25,0,125.0,9,,,,,0,55,55,68,,,,,,,,,,,,,,,,,,right,1,1.98401234963,,,001,3.0.3,60.23986770876484,ninosDelConv2,2019_Aug_10_0906,239,
,,,10,0,109.0,149,,,,,0,56,56,28,,,,,,,,,,,,,,,,,,right,0,1.51739462116,,,001,3.0.3,60.23986770876484,ninosDelConv2,2019_Aug_10_0906,239,
,,,25,0,35.0,60,,,,,0,57,57,75,,,,,,,,,,,,,,,,,,right,0,1.80059723009,,,001,3.0.3,60.23986770876484,ninosDelConv2,2019_Aug_10_0906,239,
,,,5,0,36.0,61,,,,,0,58,58,46,,,,,,,,,,,,,,,,,,right,0,1.55097583216,,,001,3.0.3,60.23986770876484,ninosDelConv2,2019_Aug_10_0906,239,
,,,25,0,125.0,4,,,,,0,59,59,63,,,,,,,,,,,,,,,,,,left,1,0.966299013933,,,001,3.0.3,60.23986770876484,ninosDelConv2,2019_Aug_10_0906,239,
,,,25,0,75.0,59,,,,,0,60,60,77,,,,,,,,,,,,,,,,,,left,0,2.18365878216,,,001,3.0.3,60.23986770876484,ninosDelConv2,2019_Aug_10_0906,239,
,,,5,0,56.0,60,,,,,0,61,61,47,,,,,,,,,,,,,,,,,,right,0,1.51779198635,,,001,3.0.3,60.23986770876484,ninosDelConv2,2019_Aug_10_0906,239,
,,,10,0,110.0,90,,,,,0,62,62,23,,,,,,,,,,,,,,,,,,right,1,1.2993573274,,,001,3.0.3,60.23986770876484,ninosDelConv2,2019_Aug_10_0906,239,
,,,10,0,149.0,61,,,,,0,63,63,19,,,,,,,,,,,,,,,,,,right,1,1.83285474742,,,001,3.0.3,60.23986770876484,ninosDelConv2,2019_Aug_10_0906,239,
,,,5,0,106.0,29,,,,,0,64,64,43,,,,,,,,,,,,,,,,,,left,1,3.30124391231,,,001,3.0.3,60.23986770876484,ninosDelConv2,2019_Aug_10_0906,239,
,,,10,0,39.0,29,,,,,0,65,65,11,,,,,,,,,,,,,,,,,,right,0,2.83316677925,,,001,3.0.3,60.23986770876484,ninosDelConv2,2019_Aug_10_0906,239,
,,,5,0,104.0,90,,,,,0,66,66,53,,,,,,,,,,,,,,,,,,right,0,6.48341193248,,,001,3.0.3,60.23986770876484,ninosDelConv2,2019_Aug_10_0906,239,
,,,5,0,54.0,5,,,,,0,67,67,32,,,,,,,,,,,,,,,,,,right,1,1.96606768877,,,001,3.0.3,60.23986770876484,ninosDelConv2,2019_Aug_10_0906,239,
,,,5,0,106.0,152,,,,,0,68,68,58,,,,,,,,,,,,,,,,,,left,1,3.94996488991,,,001,3.0.3,60.23986770876484,ninosDelConv2,2019_Aug_10_0906,239,
,,,10,0,109.0,5,,,,,0,69,69,3,,,,,,,,,,,,,,,,,,left,1,12.314941444,,,001,3.0.3,60.23986770876484,ninosDelConv2,2019_Aug_10_0906,239,
,,,5,0,105.0,60,,,,,0,70,70,48,,,,,,,,,,,,,,,,,,left,0,4.56647204503,,,001,3.0.3,60.23986770876484,ninosDelConv2,2019_Aug_10_0906,239,
,,,5,0,56.0,9,,,,,0,71,71,37,,,,,,,,,,,,,,,,,,left,1,2.41681857023,,,001,3.0.3,60.23986770876484,ninosDelConv2,2019_Aug_10_0906,239,
,,,25,0,35.0,11,,,,,0,72,72,65,,,,,,,,,,,,,,,,,,left,0,8.13278935954,,,001,3.0.3,60.23986770876484,ninosDelConv2,2019_Aug_10_0906,239,
,,,25,0,55.0,60,,,,,0,73,73,76,,,,,,,,,,,,,,,,,,left,0,3.99919858691,,,001,3.0.3,60.23986770876484,ninosDelConv2,2019_Aug_10_0906,239,
,,,25,0,55.0,151,,,,,0,74,74,86,,,,,,,,,,,,,,,,,,right,0,3.18388702278,,,001,3.0.3,60.23986770876484,ninosDelConv2,2019_Aug_10_0906,239,
,,,5,0,104.0,10,,,,,0,75,75,38,,,,,,,,,,,,,,,,,,right,1,8.68174289598,,,001,3.0.3,60.23986770876484,ninosDelConv2,2019_Aug_10_0906,239,
,,,5,0,35.0,150,,,,,0,76,76,56,,,,,,,,,,,,,,,,,,left,0,1.73313562747,,,001,3.0.3,60.23986770876484,ninosDelConv2,2019_Aug_10_0906,239,
,,,25,0,35.0,30,,,,,0,77,77,70,,,,,,,,,,,,,,,,,,left,0,1.90054767509,,,001,3.0.3,60.23986770876484,ninosDelConv2,2019_Aug_10_0906,239,
,,,10,0,110.0,60,,,,,0,78,78,18,,,,,,,,,,,,,,,,,,left,1,2.01766398642,,,001,3.0.3,60.23986770876484,ninosDelConv2,2019_Aug_10_0906,239,
,,,25,0,35.0,150,,,,,0,79,79,85,,,,,,,,,,,,,,,,,,left,0,1.24988819275,,,001,3.0.3,60.23986770876484,ninosDelConv2,2019_Aug_10_0906,239,
,,,10,0,20.0,59,,,,,0,80,80,15,,,,,,,,,,,,,,,,,,left,0,1.83489760524,,,001,3.0.3,60.23986770876484,ninosDelConv2,2019_Aug_10_0906,239,
,,,10,0,149.0,89,,,,,0,81,81,24,,,,,,,,,,,,,,,,,,left,1,1.23374581174,,,001,3.0.3,60.23986770876484,ninosDelConv2,2019_Aug_10_0906,239,
,,,25,0,75.0,31,,,,,0,82,82,72,,,,,,,,,,,,,,,,,,left,1,3.46705724637,,,001,3.0.3,60.23986770876484,ninosDelConv2,2019_Aug_10_0906,239,
,,,10,0,60.0,60,,,,,0,83,83,17,,,,,,,,,,,,,,,,,,right,1,3.96650977689,,,001,3.0.3,60.23986770876484,ninosDelConv2,2019_Aug_10_0906,239,
,,,5,0,36.0,9,,,,,0,84,84,36,,,,,,,,,,,,,,,,,,left,1,4.18294373038,,,001,3.0.3,60.23986770876484,ninosDelConv2,2019_Aug_10_0906,239,
,,,5,0,15.0,11,,,,,0,85,85,35,,,,,,,,,,,,,,,,,,left,0,3.75050043338,,,001,3.0.3,60.23986770876484,ninosDelConv2,2019_Aug_10_0906,239,
,,,5,0,14.0,149,,,,,0,86,86,55,,,,,,,,,,,,,,,,,,right,0,1.44928736449,,,001,3.0.3,60.23986770876484,ninosDelConv2,2019_Aug_10_0906,239,
,,,25,0,150.0,150,,,,,0,87,87,89,,,,,,,,,,,,,,,,,,left,0,2.28407496167,,,001,3.0.3,60.23986770876484,ninosDelConv2,2019_Aug_10_0906,239,
,,,10,0,111.0,10,,,,,0,88,88,8,,,,,,,,,,,,,,,,,,left,1,2.78298310714,,,001,3.0.3,60.23986770876484,ninosDelConv2,2019_Aug_10_0906,239,
,,,5,0,151.0,4,,,,,0,89,89,34,,,,,,,,,,,,,,,,,,right,1,1.85033418774,,,001,3.0.3,60.23986770876484,ninosDelConv2,2019_Aug_10_0906,239,
,,,,,,,,,,,,,,,,,,,,,,,,,,,,,,,,,,,space,183.534014046,001,3.0.3,60.23986770876484,ninosDelConv2,2019_Aug_10_0906,239,
