ssAmount,llAmount,llDelay,ss_am,ss_del,ll_am,ll_del,Practice.thisRepN,Practice.thisTrialN,Practice.thisN,Practice.thisIndex,trials.thisRepN,trials.thisTrialN,trials.thisN,trials.thisIndex,intro1.started,intro1.stopped,key1.keys,key1.rt,key1.started,key1.stopped,intro2.started,intro2.stopped,key2.keys,key2.rt,key2.started,key2.stopped,intro2_2.started,intro2_2.stopped,key2_2.keys,key2_2.rt,key2_2.started,key2_2.stopped,Intro2_3.started,Intro2_3.stopped,key2_3.keys,key2_3.rt,key2_3.started,key2_3.stopped,key3.keys,key3.rt,key3.started,key3.stopped,intro3.started,intro3.stopped,ss_am.started,ss_am.stopped,ss_del.started,ss_del.stopped,ll_am.started,ll_am.stopped,ll_del.started,ll_del.stopped,Intro4.started,Intro4.stopped,key4.keys,key4.rt,key4.started,key4.stopped,pregunta.started,pregunta.stopped,ssAm_P.started,ssAm_P.stopped,ssDel_P.started,ssDel_P.stopped,llAm_P.started,llAm_P.stopped,llDel_P.started,llDel_P.stopped,respP.keys,respP.corr,respP.rt,respP.started,respP.stopped,feedbackP.started,feedbackP.stopped,comienzo.started,comienzo.stopped,key5.keys,key5.rt,key5.started,key5.stopped,preguntaT.started,preguntaT.stopped,ssAm_T.started,ssAm_T.stopped,ssDel_T.started,ssDel_T.stopped,llAm_T.started,llAm_T.stopped,llDel_T.started,llDel_T.stopped,respT.keys,respT.corr,respT.rt,respT.started,respT.stopped,textfbT.started,textfbT.stopped,Gracias.started,Gracias.stopped,key_resp_4.keys,key_resp_4.rt,key_resp_4.started,key_resp_4.stopped,session,participant,date,expName,psychopyVersion,frameRate,
,,,,,,,,,,,,,,,9.917027999996208,None,space,37.118910300006974,10.404364299989538,None,,,,,,,,,,,,,,,,,,,,,,,,,,,,,,,,,,,,,,,,,,,,,,,,,,,,,,,,,,,,,,,,,,,,,,,,,,,,,,,,,,,,,001,246,2019_Aug_10_0931,ninosDelConv2,3.1.5,59.91597383321715,
,,,,,,,,,,,,,,,,,,,,,47.54794229999243,None,space,24.0575331,48.06395349999366,None,,,,,,,,,,,,,,,,,,,,,,,,,,,,,,,,,,,,,,,,,,,,,,,,,,,,,,,,,,,,,,,,,,,,,,,,,,,,,,,001,246,2019_Aug_10_0931,ninosDelConv2,3.1.5,59.91597383321715,
,,,,,,,,,,,,,,,,,,,,,,,,,,,72.1432216999965,None,space,6.547619099990698,72.65910079999594,None,,,,,,,,,,,,,,,,,,,,,,,,,,,,,,,,,,,,,,,,,,,,,,,,,,,,,,,,,,,,,,,,,,,,,,,,,001,246,2019_Aug_10_0931,ninosDelConv2,3.1.5,59.91597383321715,
,,,,,,,,,,,,,,,,,,,,,,,,,,,,,,,,,79.2253170999902,None,space,3.3974995000025956,79.74218299999484,None,,,,,,,,,,,,,,,,,,,,,,,,,,,,,,,,,,,,,,,,,,,,,,,,,,,,,,,,,,,,,,,,,,,001,246,2019_Aug_10_0931,ninosDelConv2,3.1.5,59.91597383321715,
,,,,,,,,,,,,,,,,,,,,,,,,,,,,,,,,,,,,,,,right,4.9665207999933045,83.67358239999157,None,,,,,,,,,,,,,,,,,,,,,,,,,,,,,,,,,,,,,,,,,,,,,,,,,,,,,,,,,,,,,,,001,246,2019_Aug_10_0931,ninosDelConv2,3.1.5,59.91597383321715,
,,,,,,,,,,,,,,,,,,,,,,,,,,,,,,,,,,,,,,,,,,,83.15976929999306,None,83.15976929999306,None,83.15976929999306,None,83.15976929999306,None,83.15976929999306,None,88.65645149999182,None,space,2.8236233000061475,89.17259770000237,None,,,,,,,,,,,,,,,,,,,,,,,,,,,,,,,,,,,,,,,,,,,,,,,001,246,2019_Aug_10_0931,ninosDelConv2,3.1.5,59.91597383321715,
25,35,150,,,,,0,0,0,1,,,,,,,,,,,,,,,,,,,,,,,,,,,,,,,,,,,,,,,,,,,,,,,,,92.05438339999819,None,92.05438339999819,None,92.05438339999819,None,92.05438339999819,None,92.05438339999819,None,right,0,3.8050680000014836,92.55536779999966,None,96.3984810999973,None,,,,,,,,,,,,,,,,,,,,,,,,,,,,,,001,246,2019_Aug_10_0931,ninosDelConv2,3.1.5,59.91597383321715,
10,109,9,,,,,0,1,1,0,,,,,,,,,,,,,,,,,,,,,,,,,,,,,,,,,,,,,,,,,,,,,,,,,99.38811169999826,None,99.38811169999826,None,99.38811169999826,None,99.38811169999826,None,99.38811169999826,None,right,1,3.1537337000045227,99.9040585999901,None,103.09447679998993,None,,,,,,,,,,,,,,,,,,,,,,,,,,,,,,001,246,2019_Aug_10_0931,ninosDelConv2,3.1.5,59.91597383321715,
10,19,89,,,,,0,2,2,2,,,,,,,,,,,,,,,,,,,,,,,,,,,,,,,,,,,,,,,,,,,,,,,,,106.10387690000061,None,106.10387690000061,None,106.10387690000061,None,106.10387690000061,None,106.10387690000061,None,left,0,2.960873399992124,106.60268569999607,None,109.59443739999551,None,,,,,,,,,,,,,,,,,,,,,,,,,,,,,,001,246,2019_Aug_10_0931,ninosDelConv2,3.1.5,59.91597383321715,
,,,,,,,,,,,,,,,,,,,,,,,,,,,,,,,,,,,,,,,,,,,,,,,,,,,,,,,,,,,,,,,,,,,,,,,,,,,,112.58550950000063,None,g,62.49455039999157,113.10217169999669,None,,,,,,,,,,,,,,,,,,,,,,,,001,246,2019_Aug_10_0931,ninosDelConv2,3.1.5,59.91597383321715,
,,,25,0,125.0,89,,,,,0,0,0,83,,,,,,,,,,,,,,,,,,,,,,,,,,,,,,,,,,,,,,,,,,,,,,,,,,,,,,,,,,,,,,,,,,,,175.65803379999124,None,175.65803379999124,None,175.65803379999124,None,175.65803379999124,None,175.65803379999124,None,right,0,5.451001000008546,176.15660950000165,None,181.64542749999964,None,,,,,,,001,246,2019_Aug_10_0931,ninosDelConv2,3.1.5,59.91597383321715,
,,,10,0,149.0,89,,,,,0,1,1,24,,,,,,,,,,,,,,,,,,,,,,,,,,,,,,,,,,,,,,,,,,,,,,,,,,,,,,,,,,,,,,,,,,,,184.65627219999442,None,184.65627219999442,None,184.65627219999442,None,184.65627219999442,None,184.65627219999442,None,right,1,7.623032499992405,185.15467949998856,None,192.81107850000262,None,,,,,,,001,246,2019_Aug_10_0931,ninosDelConv2,3.1.5,59.91597383321715,
,,,10,0,151.0,11,,,,,0,2,2,9,,,,,,,,,,,,,,,,,,,,,,,,,,,,,,,,,,,,,,,,,,,,,,,,,,,,,,,,,,,,,,,,,,,,195.81570959999226,None,195.81570959999226,None,195.81570959999226,None,195.81570959999226,None,195.81570959999226,None,right,1,1.8808176000020467,196.31928709999193,None,198.21865909999178,None,,,,,,,001,246,2019_Aug_10_0931,ninosDelConv2,3.1.5,59.91597383321715,
,,,5,0,104.0,10,,,,,0,3,3,38,,,,,,,,,,,,,,,,,,,,,,,,,,,,,,,,,,,,,,,,,,,,,,,,,,,,,,,,,,,,,,,,,,,,201.23423799999,None,201.23423799999,None,201.23423799999,None,201.23423799999,None,201.23423799999,None,right,1,1.906455400006962,201.73441140000068,None,203.66789419999986,None,,,,,,,001,246,2019_Aug_10_0931,ninosDelConv2,3.1.5,59.91597383321715,
,,,5,0,105.0,60,,,,,0,4,4,48,,,,,,,,,,,,,,,,,,,,,,,,,,,,,,,,,,,,,,,,,,,,,,,,,,,,,,,,,,,,,,,,,,,,206.68568239999877,None,206.68568239999877,None,206.68568239999877,None,206.68568239999877,None,206.68568239999877,None,right,1,4.143347200006247,207.18372519999684,None,211.34948849999637,None,,,,,,,001,246,2019_Aug_10_0931,ninosDelConv2,3.1.5,59.91597383321715,
,,,10,0,110.0,60,,,,,0,5,5,18,,,,,,,,,,,,,,,,,,,,,,,,,,,,,,,,,,,,,,,,,,,,,,,,,,,,,,,,,,,,,,,,,,,,214.36472459998913,None,214.36472459998913,None,214.36472459998913,None,214.36472459998913,None,214.36472459998913,None,left,1,4.183573200003593,214.86565890000202,None,219.0648480999953,None,,,,,,,001,246,2019_Aug_10_0931,ninosDelConv2,3.1.5,59.91597383321715,
,,,25,0,75.0,5,,,,,0,6,6,62,,,,,,,,,,,,,,,,,,,,,,,,,,,,,,,,,,,,,,,,,,,,,,,,,,,,,,,,,,,,,,,,,,,,222.0847178999975,None,222.0847178999975,None,222.0847178999975,None,222.0847178999975,None,222.0847178999975,None,right,1,2.821990900003584,222.58094499999424,None,225.42935369999032,None,,,,,,,001,246,2019_Aug_10_0931,ninosDelConv2,3.1.5,59.91597383321715,
,,,25,0,55.0,60,,,,,0,7,7,76,,,,,,,,,,,,,,,,,,,,,,,,,,,,,,,,,,,,,,,,,,,,,,,,,,,,,,,,,,,,,,,,,,,,228.4455151000002,None,228.4455151000002,None,228.4455151000002,None,228.4455151000002,None,228.4455151000002,None,right,0,1.6044573999970453,228.9458622999955,None,230.58536879999156,None,,,,,,,001,246,2019_Aug_10_0931,ninosDelConv2,3.1.5,59.91597383321715,
,,,10,0,111.0,10,,,,,0,8,8,8,,,,,,,,,,,,,,,,,,,,,,,,,,,,,,,,,,,,,,,,,,,,,,,,,,,,,,,,,,,,,,,,,,,,233.5959131999989,None,233.5959131999989,None,233.5959131999989,None,233.5959131999989,None,233.5959131999989,None,left,1,5.358170799998334,234.09495639998931,None,239.48433330000262,None,,,,,,,001,246,2019_Aug_10_0931,ninosDelConv2,3.1.5,59.91597383321715,
,,,5,0,35.0,31,,,,,0,9,9,41,,,,,,,,,,,,,,,,,,,,,,,,,,,,,,,,,,,,,,,,,,,,,,,,,,,,,,,,,,,,,,,,,,,,242.495952199999,None,242.495952199999,None,242.495952199999,None,242.495952199999,None,242.495952199999,None,right,0,8.977232000004733,242.99410299999,None,251.99962839999353,None,,,,,,,001,246,2019_Aug_10_0931,ninosDelConv2,3.1.5,59.91597383321715,
,,,25,0,75.0,90,,,,,0,10,10,82,,,,,,,,,,,,,,,,,,,,,,,,,,,,,,,,,,,,,,,,,,,,,,,,,,,,,,,,,,,,,,,,,,,,255.01034409999556,None,255.01034409999556,None,255.01034409999556,None,255.01034409999556,None,255.01034409999556,None,left,0,5.62422160001006,255.50708149999264,None,261.15668069999083,None,,,,,,,001,246,2019_Aug_10_0931,ninosDelConv2,3.1.5,59.91597383321715,
,,,10,0,20.0,5,,,,,0,11,11,0,,,,,,,,,,,,,,,,,,,,,,,,,,,,,,,,,,,,,,,,,,,,,,,,,,,,,,,,,,,,,,,,,,,,264.1755754999904,None,264.1755754999904,None,264.1755754999904,None,264.1755754999904,None,264.1755754999904,None,left,1,3.259353099987493,264.6732628000027,None,267.9617195000028,None,,,,,,,001,246,2019_Aug_10_0931,ninosDelConv2,3.1.5,59.91597383321715,
,,,25,0,55.0,90,,,,,0,12,12,81,,,,,,,,,,,,,,,,,,,,,,,,,,,,,,,,,,,,,,,,,,,,,,,,,,,,,,,,,,,,,,,,,,,,270.97520369999984,None,270.97520369999984,None,270.97520369999984,None,270.97520369999984,None,270.97520369999984,None,right,0,1.9007851000060327,271.47216359998856,None,273.4103929999983,None,,,,,,,001,246,2019_Aug_10_0931,ninosDelConv2,3.1.5,59.91597383321715,
,,,10,0,40.0,91,,,,,0,13,13,21,,,,,,,,,,,,,,,,,,,,,,,,,,,,,,,,,,,,,,,,,,,,,,,,,,,,,,,,,,,,,,,,,,,,276.4241583999974,None,276.4241583999974,None,276.4241583999974,None,276.4241583999974,None,276.4241583999974,None,left,0,1.9012492000038037,276.9209230999986,None,278.8525773000001,None,,,,,,,001,246,2019_Aug_10_0931,ninosDelConv2,3.1.5,59.91597383321715,
,,,25,0,150.0,61,,,,,0,14,14,79,,,,,,,,,,,,,,,,,,,,,,,,,,,,,,,,,,,,,,,,,,,,,,,,,,,,,,,,,,,,,,,,,,,,281.87328149999666,None,281.87328149999666,None,281.87328149999666,None,281.87328149999666,None,281.87328149999666,None,right,0,5.578022000001511,282.36975820000225,None,287.9681624999939,None,,,,,,,001,246,2019_Aug_10_0931,ninosDelConv2,3.1.5,59.91597383321715,
,,,5,0,56.0,9,,,,,0,15,15,37,,,,,,,,,,,,,,,,,,,,,,,,,,,,,,,,,,,,,,,,,,,,,,,,,,,,,,,,,,,,,,,,,,,,290.98980830000073,None,290.98980830000073,None,290.98980830000073,None,290.98980830000073,None,290.98980830000073,None,right,1,0.7840129999967758,291.483888799994,None,292.2837975000002,None,,,,,,,001,246,2019_Aug_10_0931,ninosDelConv2,3.1.5,59.91597383321715,
,,,25,0,35.0,30,,,,,0,16,16,70,,,,,,,,,,,,,,,,,,,,,,,,,,,,,,,,,,,,,,,,,,,,,,,,,,,,,,,,,,,,,,,,,,,,295.30046339999535,None,295.30046339999535,None,295.30046339999535,None,295.30046339999535,None,295.30046339999535,None,right,0,2.8199795999971684,295.7996400999982,None,298.6560460999899,None,,,,,,,001,246,2019_Aug_10_0931,ninosDelConv2,3.1.5,59.91597383321715,
,,,10,0,60.0,29,,,,,0,17,17,12,,,,,,,,,,,,,,,,,,,,,,,,,,,,,,,,,,,,,,,,,,,,,,,,,,,,,,,,,,,,,,,,,,,,301.6658597999922,None,301.6658597999922,None,301.6658597999922,None,301.6658597999922,None,301.6658597999922,None,left,1,2.781986500005587,302.1663375999924,None,304.97021999998833,None,,,,,,,001,246,2019_Aug_10_0931,ninosDelConv2,3.1.5,59.91597383321715,
,,,5,0,56.0,29,,,,,0,18,18,42,,,,,,,,,,,,,,,,,,,,,,,,,,,,,,,,,,,,,,,,,,,,,,,,,,,,,,,,,,,,,,,,,,,,307.97898749999877,None,307.97898749999877,None,307.97898749999877,None,307.97898749999877,None,307.97898749999877,None,left,1,2.7258538999885786,308.4814974999899,None,311.2304581999924,None,,,,,,,001,246,2019_Aug_10_0931,ninosDelConv2,3.1.5,59.91597383321715,
,,,5,0,55.0,151,,,,,0,19,19,57,,,,,,,,,,,,,,,,,,,,,,,,,,,,,,,,,,,,,,,,,,,,,,,,,,,,,,,,,,,,,,,,,,,,314.2297369000007,None,314.2297369000007,None,314.2297369000007,None,314.2297369000007,None,314.2297369000007,None,right,1,3.4493052999896463,314.74717019998934,None,318.2127594999911,None,,,,,,,001,246,2019_Aug_10_0931,ninosDelConv2,3.1.5,59.91597383321715,
,,,5,0,106.0,29,,,,,0,20,20,43,,,,,,,,,,,,,,,,,,,,,,,,,,,,,,,,,,,,,,,,,,,,,,,,,,,,,,,,,,,,,,,,,,,,321.2283165999979,None,321.2283165999979,None,321.2283165999979,None,321.2283165999979,None,321.2283165999979,None,right,1,0.573162400003639,321.72834869999497,None,322.3287697999913,None,,,,,,,001,246,2019_Aug_10_0931,ninosDelConv2,3.1.5,59.91597383321715,
,,,25,0,75.0,151,,,,,0,21,21,87,,,,,,,,,,,,,,,,,,,,,,,,,,,,,,,,,,,,,,,,,,,,,,,,,,,,,,,,,,,,,,,,,,,,325.3488104999997,None,325.3488104999997,None,325.3488104999997,None,325.3488104999997,None,325.3488104999997,None,right,0,2.258187400002498,325.8451261000009,None,328.1355418999883,None,,,,,,,001,246,2019_Aug_10_0931,ninosDelConv2,3.1.5,59.91597383321715,
,,,5,0,149.0,59,,,,,0,22,22,49,,,,,,,,,,,,,,,,,,,,,,,,,,,,,,,,,,,,,,,,,,,,,,,,,,,,,,,,,,,,,,,,,,,,331.14443659999233,None,331.14443659999233,None,331.14443659999233,None,331.14443659999233,None,331.14443659999233,None,left,1,15.42079289999674,331.6428261999972,None,347.09471720000147,None,,,,,,,001,246,2019_Aug_10_0931,ninosDelConv2,3.1.5,59.91597383321715,
,,,25,0,55.0,151,,,,,0,23,23,86,,,,,,,,,,,,,,,,,,,,,,,,,,,,,,,,,,,,,,,,,,,,,,,,,,,,,,,,,,,,,,,,,,,,350.1095179999975,None,350.1095179999975,None,350.1095179999975,None,350.1095179999975,None,350.1095179999975,None,left,0,6.47566499999084,350.6067361000023,None,357.1100308999885,None,,,,,,,001,246,2019_Aug_10_0931,ninosDelConv2,3.1.5,59.91597383321715,
,,,5,0,104.0,90,,,,,0,24,24,53,,,,,,,,,,,,,,,,,,,,,,,,,,,,,,,,,,,,,,,,,,,,,,,,,,,,,,,,,,,,,,,,,,,,360.1246828000003,None,360.1246828000003,None,360.1246828000003,None,360.1246828000003,None,360.1246828000003,None,right,1,1.8226997000019765,360.62141690000135,None,362.47755289998895,None,,,,,,,001,246,2019_Aug_10_0931,ninosDelConv2,3.1.5,59.91597383321715,
,,,25,0,55.0,6,,,,,0,25,25,61,,,,,,,,,,,,,,,,,,,,,,,,,,,,,,,,,,,,,,,,,,,,,,,,,,,,,,,,,,,,,,,,,,,,365.48721300000034,None,365.48721300000034,None,365.48721300000034,None,365.48721300000034,None,365.48721300000034,None,left,1,2.2660256999952253,365.98690049999277,None,368.26992219999374,None,,,,,,,001,246,2019_Aug_10_0931,ninosDelConv2,3.1.5,59.91597383321715,
,,,25,0,55.0,30,,,,,0,26,26,71,,,,,,,,,,,,,,,,,,,,,,,,,,,,,,,,,,,,,,,,,,,,,,,,,,,,,,,,,,,,,,,,,,,,371.2793870000023,None,371.2793870000023,None,371.2793870000023,None,371.2793870000023,None,371.2793870000023,None,right,0,3.4965771999995923,371.7859127999982,None,375.3114193999936,None,,,,,,,001,246,2019_Aug_10_0931,ninosDelConv2,3.1.5,59.91597383321715,
,,,25,0,125.0,31,,,,,0,27,27,73,,,,,,,,,,,,,,,,,,,,,,,,,,,,,,,,,,,,,,,,,,,,,,,,,,,,,,,,,,,,,,,,,,,,378.31515650000074,None,378.31515650000074,None,378.31515650000074,None,378.31515650000074,None,378.31515650000074,None,left,1,2.5068664999998873,378.81807929999195,None,381.3552318000002,None,,,,,,,001,246,2019_Aug_10_0931,ninosDelConv2,3.1.5,59.91597383321715,
,,,5,0,14.0,31,,,,,0,28,28,40,,,,,,,,,,,,,,,,,,,,,,,,,,,,,,,,,,,,,,,,,,,,,,,,,,,,,,,,,,,,,,,,,,,,384.3635981999978,None,384.3635981999978,None,384.3635981999978,None,384.3635981999978,None,384.3635981999978,None,left,0,2.471656499998062,384.86675089999335,None,387.3734503000014,None,,,,,,,001,246,2019_Aug_10_0931,ninosDelConv2,3.1.5,59.91597383321715,
,,,10,0,150.0,5,,,,,0,29,29,4,,,,,,,,,,,,,,,,,,,,,,,,,,,,,,,,,,,,,,,,,,,,,,,,,,,,,,,,,,,,,,,,,,,,390.38421629999357,None,390.38421629999357,None,390.38421629999357,None,390.38421629999357,None,390.38421629999357,None,left,1,1.0608269999938784,390.8819446999987,None,391.97171369999705,None,,,,,,,001,246,2019_Aug_10_0931,ninosDelConv2,3.1.5,59.91597383321715,
,,,25,0,75.0,59,,,,,0,30,30,77,,,,,,,,,,,,,,,,,,,,,,,,,,,,,,,,,,,,,,,,,,,,,,,,,,,,,,,,,,,,,,,,,,,,394.98401990000275,None,394.98401990000275,None,394.98401990000275,None,394.98401990000275,None,394.98401990000275,None,right,0,2.816038499993738,395.4810695999913,None,398.3207403999986,None,,,,,,,001,246,2019_Aug_10_0931,ninosDelConv2,3.1.5,59.91597383321715,
,,,5,0,35.0,6,,,,,0,31,31,31,,,,,,,,,,,,,,,,,,,,,,,,,,,,,,,,,,,,,,,,,,,,,,,,,,,,,,,,,,,,,,,,,,,,401.3212443999946,None,401.3212443999946,None,401.3212443999946,None,401.3212443999946,None,401.3212443999946,None,left,1,1.0863479999970878,401.8296459999983,None,402.9539630999934,None,,,,,,,001,246,2019_Aug_10_0931,ninosDelConv2,3.1.5,59.91597383321715,
,,,10,0,39.0,6,,,,,0,32,32,1,,,,,,,,,,,,,,,,,,,,,,,,,,,,,,,,,,,,,,,,,,,,,,,,,,,,,,,,,,,,,,,,,,,,405.9590631000028,None,405.9590631000028,None,405.9590631000028,None,405.9590631000028,None,405.9590631000028,None,right,1,1.6674600000114879,406.4623985999933,None,408.14487550000194,None,,,,,,,001,246,2019_Aug_10_0931,ninosDelConv2,3.1.5,59.91597383321715,
,,,5,0,14.0,149,,,,,0,33,33,55,,,,,,,,,,,,,,,,,,,,,,,,,,,,,,,,,,,,,,,,,,,,,,,,,,,,,,,,,,,,,,,,,,,,411.16092290000233,None,411.16092290000233,None,411.16092290000233,None,411.16092290000233,None,411.16092290000233,None,right,0,0.9627980000077514,411.6616740999889,None,412.6501123999915,None,,,,,,,001,246,2019_Aug_10_0931,ninosDelConv2,3.1.5,59.91597383321715,
,,,25,0,55.0,11,,,,,0,34,34,66,,,,,,,,,,,,,,,,,,,,,,,,,,,,,,,,,,,,,,,,,,,,,,,,,,,,,,,,,,,,,,,,,,,,415.6516841999983,None,415.6516841999983,None,415.6516841999983,None,415.6516841999983,None,415.6516841999983,None,right,1,2.2386114000109956,416.1613653999957,None,418.4324801999901,None,,,,,,,001,246,2019_Aug_10_0931,ninosDelConv2,3.1.5,59.91597383321715,
,,,10,0,20.0,59,,,,,0,35,35,15,,,,,,,,,,,,,,,,,,,,,,,,,,,,,,,,,,,,,,,,,,,,,,,,,,,,,,,,,,,,,,,,,,,,421.4411177000002,None,421.4411177000002,None,421.4411177000002,None,421.4411177000002,None,421.4411177000002,None,left,0,1.9043858000077307,421.9430618999904,None,423.8822910000017,None,,,,,,,001,246,2019_Aug_10_0931,ninosDelConv2,3.1.5,59.91597383321715,
,,,5,0,35.0,150,,,,,0,36,36,56,,,,,,,,,,,,,,,,,,,,,,,,,,,,,,,,,,,,,,,,,,,,,,,,,,,,,,,,,,,,,,,,,,,,426.89649759999884,None,426.89649759999884,None,426.89649759999884,None,426.89649759999884,None,426.89649759999884,None,right,0,1.157186600001296,427.39132419999805,None,428.57503959999303,None,,,,,,,001,246,2019_Aug_10_0931,ninosDelConv2,3.1.5,59.91597383321715,
,,,5,0,36.0,9,,,,,0,37,37,36,,,,,,,,,,,,,,,,,,,,,,,,,,,,,,,,,,,,,,,,,,,,,,,,,,,,,,,,,,,,,,,,,,,,431.5896980999969,None,431.5896980999969,None,431.5896980999969,None,431.5896980999969,None,431.5896980999969,None,right,1,1.22142509999685,432.0906077999971,None,433.34569550000015,None,,,,,,,001,246,2019_Aug_10_0931,ninosDelConv2,3.1.5,59.91597383321715,
,,,5,0,150.0,90,,,,,0,38,38,54,,,,,,,,,,,,,,,,,,,,,,,,,,,,,,,,,,,,,,,,,,,,,,,,,,,,,,,,,,,,,,,,,,,,436.3550405999995,None,436.3550405999995,None,436.3550405999995,None,436.3550405999995,None,436.3550405999995,None,right,1,3.4487529000034556,436.8568579999992,None,440.3227842999913,None,,,,,,,001,246,2019_Aug_10_0931,ninosDelConv2,3.1.5,59.91597383321715,
,,,10,0,40.0,10,,,,,0,39,39,6,,,,,,,,,,,,,,,,,,,,,,,,,,,,,,,,,,,,,,,,,,,,,,,,,,,,,,,,,,,,,,,,,,,,443.32391279999865,None,443.32391279999865,None,443.32391279999865,None,443.32391279999865,None,443.32391279999865,None,right,1,3.7745566999947187,443.8391053999949,None,447.63833799998974,None,,,,,,,001,246,2019_Aug_10_0931,ninosDelConv2,3.1.5,59.91597383321715,
,,,10,0,150.0,30,,,,,0,40,40,14,,,,,,,,,,,,,,,,,,,,,,,,,,,,,,,,,,,,,,,,,,,,,,,,,,,,,,,,,,,,,,,,,,,,450.6539294999966,None,450.6539294999966,None,450.6539294999966,None,450.6539294999966,None,450.6539294999966,None,left,1,3.6958952999993926,451.15402529999847,None,454.8700061999989,None,,,,,,,001,246,2019_Aug_10_0931,ninosDelConv2,3.1.5,59.91597383321715,
,,,25,0,150.0,9,,,,,0,41,41,69,,,,,,,,,,,,,,,,,,,,,,,,,,,,,,,,,,,,,,,,,,,,,,,,,,,,,,,,,,,,,,,,,,,,457.88445859999047,None,457.88445859999047,None,457.88445859999047,None,457.88445859999047,None,457.88445859999047,None,left,1,3.0560956000117585,458.3859022999968,None,461.46859360000235,None,,,,,,,001,246,2019_Aug_10_0931,ninosDelConv2,3.1.5,59.91597383321715,
,,,10,0,61.0,89,,,,,0,42,42,22,,,,,,,,,,,,,,,,,,,,,,,,,,,,,,,,,,,,,,,,,,,,,,,,,,,,,,,,,,,,,,,,,,,,464.48859609999636,None,464.48859609999636,None,464.48859609999636,None,464.48859609999636,None,464.48859609999636,None,left,1,1.7048310999962268,464.9852307999972,None,466.71769499999937,None,,,,,,,001,246,2019_Aug_10_0931,ninosDelConv2,3.1.5,59.91597383321715,
,,,25,0,35.0,11,,,,,0,43,43,65,,,,,,,,,,,,,,,,,,,,,,,,,,,,,,,,,,,,,,,,,,,,,,,,,,,,,,,,,,,,,,,,,,,,469.7386275000026,None,469.7386275000026,None,469.7386275000026,None,469.7386275000026,None,469.7386275000026,None,right,1,1.2425340000045253,470.2335844999907,None,471.5006626999966,None,,,,,,,001,246,2019_Aug_10_0931,ninosDelConv2,3.1.5,59.91597383321715,
,,,10,0,61.0,4,,,,,0,44,44,2,,,,,,,,,,,,,,,,,,,,,,,,,,,,,,,,,,,,,,,,,,,,,,,,,,,,,,,,,,,,,,,,,,,,474.51892069999303,None,474.51892069999303,None,474.51892069999303,None,474.51892069999303,None,474.51892069999303,None,right,1,0.4169954999961192,475.01678739998897,None,475.4487839999929,None,,,,,,,001,246,2019_Aug_10_0931,ninosDelConv2,3.1.5,59.91597383321715,
,,,25,0,150.0,29,,,,,0,45,45,74,,,,,,,,,,,,,,,,,,,,,,,,,,,,,,,,,,,,,,,,,,,,,,,,,,,,,,,,,,,,,,,,,,,,478.46943009999814,None,478.46943009999814,None,478.46943009999814,None,478.46943009999814,None,478.46943009999814,None,left,1,1.1132175000093412,478.9652480999939,None,480.09871569999086,None,,,,,,,001,246,2019_Aug_10_0931,ninosDelConv2,3.1.5,59.91597383321715,
,,,25,0,35.0,60,,,,,0,46,46,75,,,,,,,,,,,,,,,,,,,,,,,,,,,,,,,,,,,,,,,,,,,,,,,,,,,,,,,,,,,,,,,,,,,,483.11098250000214,None,483.11098250000214,None,483.11098250000214,None,483.11098250000214,None,483.11098250000214,None,right,0,1.4605640000081621,483.6152546999947,None,485.10602569999173,None,,,,,,,001,246,2019_Aug_10_0931,ninosDelConv2,3.1.5,59.91597383321715,
,,,25,0,150.0,4,,,,,0,47,47,64,,,,,,,,,,,,,,,,,,,,,,,,,,,,,,,,,,,,,,,,,,,,,,,,,,,,,,,,,,,,,,,,,,,,488.1105768999987,None,488.1105768999987,None,488.1105768999987,None,488.1105768999987,None,488.1105768999987,None,left,1,1.9489583000104176,488.6134114000015,None,490.5812320999976,None,,,,,,,001,246,2019_Aug_10_0931,ninosDelConv2,3.1.5,59.91597383321715,
,,,10,0,20.0,90,,,,,0,48,48,20,,,,,,,,,,,,,,,,,,,,,,,,,,,,,,,,,,,,,,,,,,,,,,,,,,,,,,,,,,,,,,,,,,,,493.59923529998923,None,493.59923529998923,None,493.59923529998923,None,493.59923529998923,None,493.59923529998923,None,right,0,2.380556499992963,494.0954117999936,None,496.50309639998886,None,,,,,,,001,246,2019_Aug_10_0931,ninosDelConv2,3.1.5,59.91597383321715,
,,,25,0,125.0,59,,,,,0,49,49,78,,,,,,,,,,,,,,,,,,,,,,,,,,,,,,,,,,,,,,,,,,,,,,,,,,,,,,,,,,,,,,,,,,,,499.5150142999919,None,499.5150142999919,None,499.5150142999919,None,499.5150142999919,None,499.5150142999919,None,right,1,2.0914235999953235,500.0109703999915,None,502.13538300000073,None,,,,,,,001,246,2019_Aug_10_0931,ninosDelConv2,3.1.5,59.91597383321715,
,,,10,0,60.0,60,,,,,0,50,50,17,,,,,,,,,,,,,,,,,,,,,,,,,,,,,,,,,,,,,,,,,,,,,,,,,,,,,,,,,,,,,,,,,,,,505.14485169999534,None,505.14485169999534,None,505.14485169999534,None,505.14485169999534,None,505.14485169999534,None,right,0,2.3517247999989195,505.644475299996,None,508.03727739999886,None,,,,,,,001,246,2019_Aug_10_0931,ninosDelConv2,3.1.5,59.91597383321715,
,,,5,0,15.0,11,,,,,0,51,51,35,,,,,,,,,,,,,,,,,,,,,,,,,,,,,,,,,,,,,,,,,,,,,,,,,,,,,,,,,,,,,,,,,,,,511.04470779999974,None,511.04470779999974,None,511.04470779999974,None,511.04470779999974,None,511.04470779999974,None,right,1,1.1675138999999035,511.5427713999961,None,512.7326288999902,None,,,,,,,001,246,2019_Aug_10_0931,ninosDelConv2,3.1.5,59.91597383321715,
,,,25,0,35.0,150,,,,,0,52,52,85,,,,,,,,,,,,,,,,,,,,,,,,,,,,,,,,,,,,,,,,,,,,,,,,,,,,,,,,,,,,,,,,,,,,515.744606399996,None,515.744606399996,None,515.744606399996,None,515.744606399996,None,515.744606399996,None,left,0,4.0817764999956125,516.2420856999961,None,520.3485988999892,None,,,,,,,001,246,2019_Aug_10_0931,ninosDelConv2,3.1.5,59.91597383321715,
,,,25,0,35.0,90,,,,,0,53,53,80,,,,,,,,,,,,,,,,,,,,,,,,,,,,,,,,,,,,,,,,,,,,,,,,,,,,,,,,,,,,,,,,,,,,523.3506282000017,None,523.3506282000017,None,523.3506282000017,None,523.3506282000017,None,523.3506282000017,None,left,0,1.7409943000093335,523.8563332999911,None,525.623947,None,,,,,,,001,246,2019_Aug_10_0931,ninosDelConv2,3.1.5,59.91597383321715,
,,,5,0,149.0,10,,,,,0,54,54,39,,,,,,,,,,,,,,,,,,,,,,,,,,,,,,,,,,,,,,,,,,,,,,,,,,,,,,,,,,,,,,,,,,,,528.6442118999985,None,528.6442118999985,None,528.6442118999985,None,528.6442118999985,None,528.6442118999985,None,left,1,2.8682705000101123,529.1397940000024,None,532.0428481999988,None,,,,,,,001,246,2019_Aug_10_0931,ninosDelConv2,3.1.5,59.91597383321715,
,,,10,0,61.0,150,,,,,0,55,55,27,,,,,,,,,,,,,,,,,,,,,,,,,,,,,,,,,,,,,,,,,,,,,,,,,,,,,,,,,,,,,,,,,,,,535.0583858999889,None,535.0583858999889,None,535.0583858999889,None,535.0583858999889,None,535.0583858999889,None,left,0,1.3417733000096632,535.5549458000023,None,536.9289477999992,None,,,,,,,001,246,2019_Aug_10_0931,ninosDelConv2,3.1.5,59.91597383321715,
,,,10,0,39.0,59,,,,,0,56,56,16,,,,,,,,,,,,,,,,,,,,,,,,,,,,,,,,,,,,,,,,,,,,,,,,,,,,,,,,,,,,,,,,,,,,539.9348852999974,None,539.9348852999974,None,539.9348852999974,None,539.9348852999974,None,539.9348852999974,None,left,1,0.5569447999878321,540.4365290999995,None,541.026773199992,None,,,,,,,001,246,2019_Aug_10_0931,ninosDelConv2,3.1.5,59.91597383321715,
,,,10,0,151.0,151,,,,,0,57,57,29,,,,,,,,,,,,,,,,,,,,,,,,,,,,,,,,,,,,,,,,,,,,,,,,,,,,,,,,,,,,,,,,,,,,544.0337207999983,None,544.0337207999983,None,544.0337207999983,None,544.0337207999983,None,544.0337207999983,None,left,0,1.5559265999909258,544.5363748999953,None,546.1241571999999,None,,,,,,,001,246,2019_Aug_10_0931,ninosDelConv2,3.1.5,59.91597383321715,
,,,10,0,39.0,29,,,,,0,58,58,11,,,,,,,,,,,,,,,,,,,,,,,,,,,,,,,,,,,,,,,,,,,,,,,,,,,,,,,,,,,,,,,,,,,,549.1341850999888,None,549.1341850999888,None,549.1341850999888,None,549.1341850999888,None,549.1341850999888,None,left,0,2.0568956999923103,549.6347476999945,None,551.7182440999895,None,,,,,,,001,246,2019_Aug_10_0931,ninosDelConv2,3.1.5,59.91597383321715,
,,,25,0,150.0,89,,,,,0,59,59,84,,,,,,,,,,,,,,,,,,,,,,,,,,,,,,,,,,,,,,,,,,,,,,,,,,,,,,,,,,,,,,,,,,,,554.7375799000001,None,554.7375799000001,None,554.7375799000001,None,554.7375799000001,None,554.7375799000001,None,left,1,4.137891299993498,555.2339106,None,559.4066843999899,None,,,,,,,001,246,2019_Aug_10_0931,ninosDelConv2,3.1.5,59.91597383321715,
,,,5,0,35.0,89,,,,,0,60,60,51,,,,,,,,,,,,,,,,,,,,,,,,,,,,,,,,,,,,,,,,,,,,,,,,,,,,,,,,,,,,,,,,,,,,562.4179295999929,None,562.4179295999929,None,562.4179295999929,None,562.4179295999929,None,562.4179295999929,None,right,0,2.5545615000010002,562.9162565000006,None,565.503301299992,None,,,,,,,001,246,2019_Aug_10_0931,ninosDelConv2,3.1.5,59.91597383321715,
,,,10,0,10.01,150,,,,,0,61,61,25,,,,,,,,,,,,,,,,,,,,,,,,,,,,,,,,,,,,,,,,,,,,,,,,,,,,,,,,,,,,,,,,,,,,568.5175784000021,None,568.5175784000021,None,568.5175784000021,None,568.5175784000021,None,568.5175784000021,None,right,0,0.8835432000050787,569.0147939000017,None,569.9150003999966,None,,,,,,,001,246,2019_Aug_10_0931,ninosDelConv2,3.1.5,59.91597383321715,
,,,5,0,54.0,5,,,,,0,62,62,32,,,,,,,,,,,,,,,,,,,,,,,,,,,,,,,,,,,,,,,,,,,,,,,,,,,,,,,,,,,,,,,,,,,,572.9368112999946,None,572.9368112999946,None,572.9368112999946,None,572.9368112999946,None,572.9368112999946,None,right,1,3.0593949999893084,573.4309744999919,None,576.5213770999981,None,,,,,,,001,246,2019_Aug_10_0931,ninosDelConv2,3.1.5,59.91597383321715,
,,,10,0,111.0,30,,,,,0,63,63,13,,,,,,,,,,,,,,,,,,,,,,,,,,,,,,,,,,,,,,,,,,,,,,,,,,,,,,,,,,,,,,,,,,,,579.5315427999885,None,579.5315427999885,None,579.5315427999885,None,579.5315427999885,None,579.5315427999885,None,right,1,0.9750411999993958,580.0293695,None,581.0297350999899,None,,,,,,,001,246,2019_Aug_10_0931,ninosDelConv2,3.1.5,59.91597383321715,
,,,25,0,75.0,31,,,,,0,64,64,72,,,,,,,,,,,,,,,,,,,,,,,,,,,,,,,,,,,,,,,,,,,,,,,,,,,,,,,,,,,,,,,,,,,,584.0507264999906,None,584.0507264999906,None,584.0507264999906,None,584.0507264999906,None,584.0507264999906,None,left,0,1.5047442000068258,584.5459008999896,None,586.0843822999886,None,,,,,,,001,246,2019_Aug_10_0931,ninosDelConv2,3.1.5,59.91597383321715,
,,,5,0,36.0,61,,,,,0,65,65,46,,,,,,,,,,,,,,,,,,,,,,,,,,,,,,,,,,,,,,,,,,,,,,,,,,,,,,,,,,,,,,,,,,,,589.096567200002,None,589.096567200002,None,589.096567200002,None,589.096567200002,None,589.096567200002,None,left,1,1.9661322000029031,589.5944118999905,None,591.5794935000013,None,,,,,,,001,246,2019_Aug_10_0931,ninosDelConv2,3.1.5,59.91597383321715,
,,,25,0,125.0,9,,,,,0,66,66,68,,,,,,,,,,,,,,,,,,,,,,,,,,,,,,,,,,,,,,,,,,,,,,,,,,,,,,,,,,,,,,,,,,,,594.5964250999968,None,594.5964250999968,None,594.5964250999968,None,594.5964250999968,None,594.5964250999968,None,right,1,1.0438591999991331,595.0940036999964,None,596.1598350999993,None,,,,,,,001,246,2019_Aug_10_0931,ninosDelConv2,3.1.5,59.91597383321715,
,,,5,0,150.0,30,,,,,0,67,67,44,,,,,,,,,,,,,,,,,,,,,,,,,,,,,,,,,,,,,,,,,,,,,,,,,,,,,,,,,,,,,,,,,,,,599.1600220999971,None,599.1600220999971,None,599.1600220999971,None,599.1600220999971,None,599.1600220999971,None,right,1,1.0963000999909127,599.6759542999935,None,600.7920768999902,None,,,,,,,001,246,2019_Aug_10_0931,ninosDelConv2,3.1.5,59.91597383321715,
,,,5,0,106.0,152,,,,,0,68,68,58,,,,,,,,,,,,,,,,,,,,,,,,,,,,,,,,,,,,,,,,,,,,,,,,,,,,,,,,,,,,,,,,,,,,603.8070810999925,None,603.8070810999925,None,603.8070810999925,None,603.8070810999925,None,603.8070810999925,None,right,1,3.583916500007035,604.3085223999951,None,607.9075240999955,None,,,,,,,001,246,2019_Aug_10_0931,ninosDelConv2,3.1.5,59.91597383321715,
,,,10,0,59.0,9,,,,,0,69,69,7,,,,,,,,,,,,,,,,,,,,,,,,,,,,,,,,,,,,,,,,,,,,,,,,,,,,,,,,,,,,,,,,,,,,610.9227804999973,None,610.9227804999973,None,610.9227804999973,None,610.9227804999973,None,610.9227804999973,None,right,1,1.1558787999965716,611.4236803999956,None,612.6067590000021,None,,,,,,,001,246,2019_Aug_10_0931,ninosDelConv2,3.1.5,59.91597383321715,
,,,25,0,75.0,10,,,,,0,70,70,67,,,,,,,,,,,,,,,,,,,,,,,,,,,,,,,,,,,,,,,,,,,,,,,,,,,,,,,,,,,,,,,,,,,,615.6145991999947,None,615.6145991999947,None,615.6145991999947,None,615.6145991999947,None,615.6145991999947,None,right,1,2.1126253999973414,616.1229712999921,None,618.2554407999996,None,,,,,,,001,246,2019_Aug_10_0931,ninosDelConv2,3.1.5,59.91597383321715,
,,,5,0,151.0,4,,,,,0,71,71,34,,,,,,,,,,,,,,,,,,,,,,,,,,,,,,,,,,,,,,,,,,,,,,,,,,,,,,,,,,,,,,,,,,,,621.2633196999959,None,621.2633196999959,None,621.2633196999959,None,621.2633196999959,None,621.2633196999959,None,right,1,4.183910799998557,621.7709005999932,None,625.9709899000009,None,,,,,,,001,246,2019_Aug_10_0931,ninosDelConv2,3.1.5,59.91597383321715,
,,,25,0,35.0,5,,,,,0,72,72,60,,,,,,,,,,,,,,,,,,,,,,,,,,,,,,,,,,,,,,,,,,,,,,,,,,,,,,,,,,,,,,,,,,,,628.9833051999885,None,628.9833051999885,None,628.9833051999885,None,628.9833051999885,None,628.9833051999885,None,left,1,2.512265600002138,629.4872414999991,None,632.0198219000013,None,,,,,,,001,246,2019_Aug_10_0931,ninosDelConv2,3.1.5,59.91597383321715,
,,,10,0,39.0,150,,,,,0,73,73,26,,,,,,,,,,,,,,,,,,,,,,,,,,,,,,,,,,,,,,,,,,,,,,,,,,,,,,,,,,,,,,,,,,,,635.0412008999992,None,635.0412008999992,None,635.0412008999992,None,635.0412008999992,None,635.0412008999992,None,right,0,2.0185805999935837,635.5359623999975,None,637.5902074999904,None,,,,,,,001,246,2019_Aug_10_0931,ninosDelConv2,3.1.5,59.91597383321715,
,,,5,0,16.0,4,,,,,0,74,74,30,,,,,,,,,,,,,,,,,,,,,,,,,,,,,,,,,,,,,,,,,,,,,,,,,,,,,,,,,,,,,,,,,,,,640.6000963999977,None,640.6000963999977,None,640.6000963999977,None,640.6000963999977,None,640.6000963999977,None,left,1,1.1818652999936603,641.1013371000008,None,642.2999113999977,None,,,,,,,001,246,2019_Aug_10_0931,ninosDelConv2,3.1.5,59.91597383321715,
,,,5,0,104.0,5,,,,,0,75,75,33,,,,,,,,,,,,,,,,,,,,,,,,,,,,,,,,,,,,,,,,,,,,,,,,,,,,,,,,,,,,,,,,,,,,645.3166813999997,None,645.3166813999997,None,645.3166813999997,None,645.3166813999997,None,645.3166813999997,None,left,1,2.949429500004044,645.8170534999954,None,648.7834004999895,None,,,,,,,001,246,2019_Aug_10_0931,ninosDelConv2,3.1.5,59.91597383321715,
,,,10,0,19.0,11,,,,,0,76,76,5,,,,,,,,,,,,,,,,,,,,,,,,,,,,,,,,,,,,,,,,,,,,,,,,,,,,,,,,,,,,,,,,,,,,651.8022010999994,None,651.8022010999994,None,651.8022010999994,None,651.8022010999994,None,651.8022010999994,None,left,0,3.988720100009232,652.2986984000017,None,656.3225329999987,None,,,,,,,001,246,2019_Aug_10_0931,ninosDelConv2,3.1.5,59.91597383321715,
,,,10,0,109.0,149,,,,,0,77,77,28,,,,,,,,,,,,,,,,,,,,,,,,,,,,,,,,,,,,,,,,,,,,,,,,,,,,,,,,,,,,,,,,,,,,659.3309731999907,None,659.3309731999907,None,659.3309731999907,None,659.3309731999907,None,659.3309731999907,None,left,0,1.5056707999901846,659.8318035999982,None,661.3644451,None,,,,,,,001,246,2019_Aug_10_0931,ninosDelConv2,3.1.5,59.91597383321715,
,,,5,0,15.0,61,,,,,0,78,78,45,,,,,,,,,,,,,,,,,,,,,,,,,,,,,,,,,,,,,,,,,,,,,,,,,,,,,,,,,,,,,,,,,,,,664.3820118000003,None,664.3820118000003,None,664.3820118000003,None,664.3820118000003,None,664.3820118000003,None,right,1,0.41580259999318514,664.8805859999993,None,665.3212308999937,None,,,,,,,001,246,2019_Aug_10_0931,ninosDelConv2,3.1.5,59.91597383321715,
,,,5,0,56.0,60,,,,,0,79,79,47,,,,,,,,,,,,,,,,,,,,,,,,,,,,,,,,,,,,,,,,,,,,,,,,,,,,,,,,,,,,,,,,,,,,668.3274636999995,None,668.3274636999995,None,668.3274636999995,None,668.3274636999995,None,668.3274636999995,None,right,1,1.1392699999996694,668.8293246999965,None,669.9958801999892,None,,,,,,,001,246,2019_Aug_10_0931,ninosDelConv2,3.1.5,59.91597383321715,
,,,5,0,15.0,91,,,,,0,80,80,50,,,,,,,,,,,,,,,,,,,,,,,,,,,,,,,,,,,,,,,,,,,,,,,,,,,,,,,,,,,,,,,,,,,,673.0060414999898,None,673.0060414999898,None,673.0060414999898,None,673.0060414999898,None,673.0060414999898,None,right,1,0.48200780000479426,673.5124916999921,None,674.0117604999978,None,,,,,,,001,246,2019_Aug_10_0931,ninosDelConv2,3.1.5,59.91597383321715,
,,,25,0,125.0,149,,,,,0,81,81,88,,,,,,,,,,,,,,,,,,,,,,,,,,,,,,,,,,,,,,,,,,,,,,,,,,,,,,,,,,,,,,,,,,,,677.031997099999,None,677.031997099999,None,677.031997099999,None,677.031997099999,None,677.031997099999,None,left,1,2.7025365000008605,677.5284594999976,None,680.2606267999945,None,,,,,,,001,246,2019_Aug_10_0931,ninosDelConv2,3.1.5,59.91597383321715,
,,,5,0,56.0,89,,,,,0,82,82,52,,,,,,,,,,,,,,,,,,,,,,,,,,,,,,,,,,,,,,,,,,,,,,,,,,,,,,,,,,,,,,,,,,,,683.2805570999917,None,683.2805570999917,None,683.2805570999917,None,683.2805570999917,None,683.2805570999917,None,right,1,1.6225735000043642,683.7770871999965,None,685.4261994999979,None,,,,,,,001,246,2019_Aug_10_0931,ninosDelConv2,3.1.5,59.91597383321715,
,,,25,0,150.0,150,,,,,0,83,83,89,,,,,,,,,,,,,,,,,,,,,,,,,,,,,,,,,,,,,,,,,,,,,,,,,,,,,,,,,,,,,,,,,,,,688.4306931000028,None,688.4306931000028,None,688.4306931000028,None,688.4306931000028,None,688.4306931000028,None,right,1,0.8740565000043716,688.9424653999886,None,689.8432942999934,None,,,,,,,001,246,2019_Aug_10_0931,ninosDelConv2,3.1.5,59.91597383321715,
,,,10,0,21.0,31,,,,,0,84,84,10,,,,,,,,,,,,,,,,,,,,,,,,,,,,,,,,,,,,,,,,,,,,,,,,,,,,,,,,,,,,,,,,,,,,692.8611603999889,None,692.8611603999889,None,692.8611603999889,None,692.8611603999889,None,692.8611603999889,None,left,0,1.7582420999970054,693.3586488000001,None,695.1466576999956,None,,,,,,,001,246,2019_Aug_10_0931,ninosDelConv2,3.1.5,59.91597383321715,
,,,10,0,109.0,5,,,,,0,85,85,3,,,,,,,,,,,,,,,,,,,,,,,,,,,,,,,,,,,,,,,,,,,,,,,,,,,,,,,,,,,,,,,,,,,,698.1565549999941,None,698.1565549999941,None,698.1565549999941,None,698.1565549999941,None,698.1565549999941,None,left,1,0.5847948000009637,698.6569573000015,None,699.2634302999941,None,,,,,,,001,246,2019_Aug_10_0931,ninosDelConv2,3.1.5,59.91597383321715,
,,,10,0,149.0,61,,,,,0,86,86,19,,,,,,,,,,,,,,,,,,,,,,,,,,,,,,,,,,,,,,,,,,,,,,,,,,,,,,,,,,,,,,,,,,,,702.2625408999884,None,702.2625408999884,None,702.2625408999884,None,702.2625408999884,None,702.2625408999884,None,left,1,1.1312695999949938,702.7736105999938,None,703.9225603999948,None,,,,,,,001,246,2019_Aug_10_0931,ninosDelConv2,3.1.5,59.91597383321715,
,,,10,0,110.0,90,,,,,0,87,87,23,,,,,,,,,,,,,,,,,,,,,,,,,,,,,,,,,,,,,,,,,,,,,,,,,,,,,,,,,,,,,,,,,,,,706.9366430999944,None,706.9366430999944,None,706.9366430999944,None,706.9366430999944,None,706.9366430999944,None,left,1,1.2457958000013605,707.4389416999911,None,708.7051070000016,None,,,,,,,001,246,2019_Aug_10_0931,ninosDelConv2,3.1.5,59.91597383321715,
,,,5,0,151.0,150,,,,,0,88,88,59,,,,,,,,,,,,,,,,,,,,,,,,,,,,,,,,,,,,,,,,,,,,,,,,,,,,,,,,,,,,,,,,,,,,711.7189908,None,711.7189908,None,711.7189908,None,711.7189908,None,711.7189908,None,left,1,2.5798855000030017,712.221577999997,None,714.8208692999906,None,,,,,,,001,246,2019_Aug_10_0931,ninosDelConv2,3.1.5,59.91597383321715,
,,,25,0,125.0,4,,,,,0,89,89,63,,,,,,,,,,,,,,,,,,,,,,,,,,,,,,,,,,,,,,,,,,,,,,,,,,,,,,,,,,,,,,,,,,,,717.8358886999922,None,717.8358886999922,None,717.8358886999922,None,717.8358886999922,None,717.8358886999922,None,left,1,1.2181294000038179,718.3368322999886,None,719.5699602999957,None,,,,,,,001,246,2019_Aug_10_0931,ninosDelConv2,3.1.5,59.91597383321715,
,,,,,,,,,,,,,,,,,,,,,,,,,,,,,,,,,,,,,,,,,,,,,,,,,,,,,,,,,,,,,,,,,,,,,,,,,,,,,,,,,,,,,,,,,,,,,,,,,,,722.5697261999885,None,left,1.0902587000018684,722.5697261999885,None,001,246,2019_Aug_10_0931,ninosDelConv2,3.1.5,59.91597383321715,
