ssAmount,llAmount,llDelay,ss_am,ss_del,ll_am,ll_del,Practice.thisRepN,Practice.thisTrialN,Practice.thisN,Practice.thisIndex,trials.thisRepN,trials.thisTrialN,trials.thisN,trials.thisIndex,key1.keys,key1.rt,key2.keys,key2.rt,key2_2.keys,key2_2.rt,key2_3.keys,key2_3.rt,key3.keys,key3.rt,key4.keys,key4.rt,respP.keys,respP.corr,respP.rt,key5.keys,key5.rt,respT.keys,respT.corr,respT.rt,key_resp_4.keys,key_resp_4.rt,session,psychopyVersion,frameRate,expName,date,participant,
,,,,,,,,,,,,,,,space,6.35059172963,,,,,,,,,,,,,,,,,,,,,001,3.0.3,60.12982236701118,ninosDelConv2,2019_Aug_10_0945,249,
,,,,,,,,,,,,,,,,,space,15.3980210907,,,,,,,,,,,,,,,,,,,001,3.0.3,60.12982236701118,ninosDelConv2,2019_Aug_10_0945,249,
,,,,,,,,,,,,,,,,,,,space,10.2310321111,,,,,,,,,,,,,,,,,001,3.0.3,60.12982236701118,ninosDelConv2,2019_Aug_10_0945,249,
,,,,,,,,,,,,,,,,,,,,,space,3.81798928091,,,,,,,,,,,,,,,001,3.0.3,60.12982236701118,ninosDelConv2,2019_Aug_10_0945,249,
,,,,,,,,,,,,,,,,,,,,,,,right,5.03355705051,,,,,,,,,,,,,001,3.0.3,60.12982236701118,ninosDelConv2,2019_Aug_10_0945,249,
,,,,,,,,,,,,,,,,,,,,,,,,,space,2.00134065759,,,,,,,,,,,001,3.0.3,60.12982236701118,ninosDelConv2,2019_Aug_10_0945,249,
10,109,9,,,,,0,0,0,0,,,,,,,,,,,,,,,,,right,1,2.6170823836,,,,,,,,001,3.0.3,60.12982236701118,ninosDelConv2,2019_Aug_10_0945,249,
10,19,89,,,,,0,1,1,2,,,,,,,,,,,,,,,,,right,0,3.86679733975,,,,,,,,001,3.0.3,60.12982236701118,ninosDelConv2,2019_Aug_10_0945,249,
25,35,150,,,,,0,2,2,1,,,,,,,,,,,,,,,,,left,0,3.15113035741,,,,,,,,001,3.0.3,60.12982236701118,ninosDelConv2,2019_Aug_10_0945,249,
,,,,,,,,,,,,,,,,,,,,,,,,,,,,,,g,19.8298387817,,,,,,001,3.0.3,60.12982236701118,ninosDelConv2,2019_Aug_10_0945,249,
,,,10,0,111.0,10,,,,,0,0,0,8,,,,,,,,,,,,,,,,,,right,1,3.64980409329,,,001,3.0.3,60.12982236701118,ninosDelConv2,2019_Aug_10_0945,249,
,,,25,0,75.0,5,,,,,0,1,1,62,,,,,,,,,,,,,,,,,,left,1,2.20074548374,,,001,3.0.3,60.12982236701118,ninosDelConv2,2019_Aug_10_0945,249,
,,,25,0,55.0,151,,,,,0,2,2,86,,,,,,,,,,,,,,,,,,left,0,1.80064143892,,,001,3.0.3,60.12982236701118,ninosDelConv2,2019_Aug_10_0945,249,
,,,25,0,75.0,59,,,,,0,3,3,77,,,,,,,,,,,,,,,,,,left,0,1.65118536132,,,001,3.0.3,60.12982236701118,ninosDelConv2,2019_Aug_10_0945,249,
,,,5,0,151.0,150,,,,,0,4,4,59,,,,,,,,,,,,,,,,,,left,1,1.30129171943,,,001,3.0.3,60.12982236701118,ninosDelConv2,2019_Aug_10_0945,249,
,,,25,0,125.0,9,,,,,0,5,5,68,,,,,,,,,,,,,,,,,,right,1,2.10177842749,,,001,3.0.3,60.12982236701118,ninosDelConv2,2019_Aug_10_0945,249,
,,,5,0,149.0,10,,,,,0,6,6,39,,,,,,,,,,,,,,,,,,right,1,2.83365975879,,,001,3.0.3,60.12982236701118,ninosDelConv2,2019_Aug_10_0945,249,
,,,5,0,55.0,151,,,,,0,7,7,57,,,,,,,,,,,,,,,,,,left,0,1.74921940628,,,001,3.0.3,60.12982236701118,ninosDelConv2,2019_Aug_10_0945,249,
,,,25,0,55.0,6,,,,,0,8,8,61,,,,,,,,,,,,,,,,,,left,1,4.43263246969,,,001,3.0.3,60.12982236701118,ninosDelConv2,2019_Aug_10_0945,249,
,,,25,0,55.0,11,,,,,0,9,9,66,,,,,,,,,,,,,,,,,,left,1,1.3996110654,,,001,3.0.3,60.12982236701118,ninosDelConv2,2019_Aug_10_0945,249,
,,,5,0,16.0,4,,,,,0,10,10,30,,,,,,,,,,,,,,,,,,right,0,1.41704526881,,,001,3.0.3,60.12982236701118,ninosDelConv2,2019_Aug_10_0945,249,
,,,5,0,56.0,60,,,,,0,11,11,47,,,,,,,,,,,,,,,,,,right,1,1.13357175246,,,001,3.0.3,60.12982236701118,ninosDelConv2,2019_Aug_10_0945,249,
,,,5,0,14.0,31,,,,,0,12,12,40,,,,,,,,,,,,,,,,,,right,0,2.80109175178,,,001,3.0.3,60.12982236701118,ninosDelConv2,2019_Aug_10_0945,249,
,,,10,0,61.0,4,,,,,0,13,13,2,,,,,,,,,,,,,,,,,,right,1,1.55140661099,,,001,3.0.3,60.12982236701118,ninosDelConv2,2019_Aug_10_0945,249,
,,,10,0,19.0,11,,,,,0,14,14,5,,,,,,,,,,,,,,,,,,left,0,2.06684165122,,,001,3.0.3,60.12982236701118,ninosDelConv2,2019_Aug_10_0945,249,
,,,5,0,15.0,91,,,,,0,15,15,50,,,,,,,,,,,,,,,,,,right,0,3.23160836764,,,001,3.0.3,60.12982236701118,ninosDelConv2,2019_Aug_10_0945,249,
,,,5,0,106.0,152,,,,,0,16,16,58,,,,,,,,,,,,,,,,,,right,0,1.2165804595,,,001,3.0.3,60.12982236701118,ninosDelConv2,2019_Aug_10_0945,249,
,,,5,0,104.0,10,,,,,0,17,17,38,,,,,,,,,,,,,,,,,,left,1,0.934143279679,,,001,3.0.3,60.12982236701118,ninosDelConv2,2019_Aug_10_0945,249,
,,,10,0,39.0,6,,,,,0,18,18,1,,,,,,,,,,,,,,,,,,right,1,1.3012583059,,,001,3.0.3,60.12982236701118,ninosDelConv2,2019_Aug_10_0945,249,
,,,5,0,56.0,9,,,,,0,19,19,37,,,,,,,,,,,,,,,,,,right,1,1.60002549714,,,001,3.0.3,60.12982236701118,ninosDelConv2,2019_Aug_10_0945,249,
,,,5,0,149.0,59,,,,,0,20,20,49,,,,,,,,,,,,,,,,,,right,1,6.39981308929,,,001,3.0.3,60.12982236701118,ninosDelConv2,2019_Aug_10_0945,249,
,,,10,0,40.0,91,,,,,0,21,21,21,,,,,,,,,,,,,,,,,,right,1,4.03343984566,,,001,3.0.3,60.12982236701118,ninosDelConv2,2019_Aug_10_0945,249,
,,,5,0,35.0,89,,,,,0,22,22,51,,,,,,,,,,,,,,,,,,right,1,2.41717892326,,,001,3.0.3,60.12982236701118,ninosDelConv2,2019_Aug_10_0945,249,
,,,25,0,35.0,60,,,,,0,23,23,75,,,,,,,,,,,,,,,,,,right,0,2.36717671296,,,001,3.0.3,60.12982236701118,ninosDelConv2,2019_Aug_10_0945,249,
,,,10,0,151.0,11,,,,,0,24,24,9,,,,,,,,,,,,,,,,,,left,1,1.43247568258,,,001,3.0.3,60.12982236701118,ninosDelConv2,2019_Aug_10_0945,249,
,,,5,0,150.0,30,,,,,0,25,25,44,,,,,,,,,,,,,,,,,,left,1,1.21747131832,,,001,3.0.3,60.12982236701118,ninosDelConv2,2019_Aug_10_0945,249,
,,,5,0,54.0,5,,,,,0,26,26,32,,,,,,,,,,,,,,,,,,right,1,1.8834085397,,,001,3.0.3,60.12982236701118,ninosDelConv2,2019_Aug_10_0945,249,
,,,25,0,150.0,61,,,,,0,27,27,79,,,,,,,,,,,,,,,,,,right,0,3.18306144921,,,001,3.0.3,60.12982236701118,ninosDelConv2,2019_Aug_10_0945,249,
,,,10,0,39.0,29,,,,,0,28,28,11,,,,,,,,,,,,,,,,,,right,1,2.78366320301,,,001,3.0.3,60.12982236701118,ninosDelConv2,2019_Aug_10_0945,249,
,,,5,0,36.0,9,,,,,0,29,29,36,,,,,,,,,,,,,,,,,,left,1,1.88387735863,,,001,3.0.3,60.12982236701118,ninosDelConv2,2019_Aug_10_0945,249,
,,,25,0,125.0,4,,,,,0,30,30,63,,,,,,,,,,,,,,,,,,left,1,0.866880102665,,,001,3.0.3,60.12982236701118,ninosDelConv2,2019_Aug_10_0945,249,
,,,10,0,111.0,30,,,,,0,31,31,13,,,,,,,,,,,,,,,,,,right,1,0.884239253821,,,001,3.0.3,60.12982236701118,ninosDelConv2,2019_Aug_10_0945,249,
,,,25,0,125.0,149,,,,,0,32,32,88,,,,,,,,,,,,,,,,,,left,1,1.03344087373,,,001,3.0.3,60.12982236701118,ninosDelConv2,2019_Aug_10_0945,249,
,,,5,0,56.0,89,,,,,0,33,33,52,,,,,,,,,,,,,,,,,,left,0,1.25133320375,,,001,3.0.3,60.12982236701118,ninosDelConv2,2019_Aug_10_0945,249,
,,,10,0,10.01,150,,,,,0,34,34,25,,,,,,,,,,,,,,,,,,right,0,1.56661752297,,,001,3.0.3,60.12982236701118,ninosDelConv2,2019_Aug_10_0945,249,
,,,5,0,151.0,4,,,,,0,35,35,34,,,,,,,,,,,,,,,,,,right,1,1.71711559163,,,001,3.0.3,60.12982236701118,ninosDelConv2,2019_Aug_10_0945,249,
,,,10,0,59.0,9,,,,,0,36,36,7,,,,,,,,,,,,,,,,,,left,1,5.00031048979,,,001,3.0.3,60.12982236701118,ninosDelConv2,2019_Aug_10_0945,249,
,,,10,0,61.0,89,,,,,0,37,37,22,,,,,,,,,,,,,,,,,,left,0,1.30059620203,,,001,3.0.3,60.12982236701118,ninosDelConv2,2019_Aug_10_0945,249,
,,,5,0,104.0,5,,,,,0,38,38,33,,,,,,,,,,,,,,,,,,right,1,1.16762949328,,,001,3.0.3,60.12982236701118,ninosDelConv2,2019_Aug_10_0945,249,
,,,25,0,150.0,9,,,,,0,39,39,69,,,,,,,,,,,,,,,,,,left,1,1.41707971052,,,001,3.0.3,60.12982236701118,ninosDelConv2,2019_Aug_10_0945,249,
,,,10,0,61.0,150,,,,,0,40,40,27,,,,,,,,,,,,,,,,,,right,0,0.918286199565,,,001,3.0.3,60.12982236701118,ninosDelConv2,2019_Aug_10_0945,249,
,,,25,0,75.0,10,,,,,0,41,41,67,,,,,,,,,,,,,,,,,,left,1,2.89907182078,,,001,3.0.3,60.12982236701118,ninosDelConv2,2019_Aug_10_0945,249,
,,,10,0,40.0,10,,,,,0,42,42,6,,,,,,,,,,,,,,,,,,right,1,0.917465766426,,,001,3.0.3,60.12982236701118,ninosDelConv2,2019_Aug_10_0945,249,
,,,10,0,109.0,5,,,,,0,43,43,3,,,,,,,,,,,,,,,,,,left,1,0.999476177152,,,001,3.0.3,60.12982236701118,ninosDelConv2,2019_Aug_10_0945,249,
,,,10,0,149.0,89,,,,,0,44,44,24,,,,,,,,,,,,,,,,,,left,0,1.25145297882,,,001,3.0.3,60.12982236701118,ninosDelConv2,2019_Aug_10_0945,249,
,,,10,0,20.0,59,,,,,0,45,45,15,,,,,,,,,,,,,,,,,,left,0,3.38367019419,,,001,3.0.3,60.12982236701118,ninosDelConv2,2019_Aug_10_0945,249,
,,,10,0,150.0,5,,,,,0,46,46,4,,,,,,,,,,,,,,,,,,right,1,1.08394788718,,,001,3.0.3,60.12982236701118,ninosDelConv2,2019_Aug_10_0945,249,
,,,25,0,125.0,59,,,,,0,47,47,78,,,,,,,,,,,,,,,,,,left,0,1.0667938441,,,001,3.0.3,60.12982236701118,ninosDelConv2,2019_Aug_10_0945,249,
,,,10,0,151.0,151,,,,,0,48,48,29,,,,,,,,,,,,,,,,,,right,0,2.36724816659,,,001,3.0.3,60.12982236701118,ninosDelConv2,2019_Aug_10_0945,249,
,,,25,0,35.0,30,,,,,0,49,49,70,,,,,,,,,,,,,,,,,,left,0,2.64984059124,,,001,3.0.3,60.12982236701118,ninosDelConv2,2019_Aug_10_0945,249,
,,,5,0,15.0,11,,,,,0,50,50,35,,,,,,,,,,,,,,,,,,right,0,3.56628338667,,,001,3.0.3,60.12982236701118,ninosDelConv2,2019_Aug_10_0945,249,
,,,5,0,106.0,29,,,,,0,51,51,43,,,,,,,,,,,,,,,,,,left,1,3.60095182573,,,001,3.0.3,60.12982236701118,ninosDelConv2,2019_Aug_10_0945,249,
,,,25,0,125.0,31,,,,,0,52,52,73,,,,,,,,,,,,,,,,,,right,0,1.29931414675,,,001,3.0.3,60.12982236701118,ninosDelConv2,2019_Aug_10_0945,249,
,,,5,0,105.0,60,,,,,0,53,53,48,,,,,,,,,,,,,,,,,,right,0,2.198961196,,,001,3.0.3,60.12982236701118,ninosDelConv2,2019_Aug_10_0945,249,
,,,25,0,35.0,5,,,,,0,54,54,60,,,,,,,,,,,,,,,,,,left,0,2.68326090288,,,001,3.0.3,60.12982236701118,ninosDelConv2,2019_Aug_10_0945,249,
,,,5,0,56.0,29,,,,,0,55,55,42,,,,,,,,,,,,,,,,,,left,1,2.48329112935,,,001,3.0.3,60.12982236701118,ninosDelConv2,2019_Aug_10_0945,249,
,,,10,0,60.0,60,,,,,0,56,56,17,,,,,,,,,,,,,,,,,,right,0,1.35021749698,,,001,3.0.3,60.12982236701118,ninosDelConv2,2019_Aug_10_0945,249,
,,,25,0,55.0,90,,,,,0,57,57,81,,,,,,,,,,,,,,,,,,left,0,5.88362547127,,,001,3.0.3,60.12982236701118,ninosDelConv2,2019_Aug_10_0945,249,
,,,10,0,21.0,31,,,,,0,58,58,10,,,,,,,,,,,,,,,,,,right,0,3.78348482563,,,001,3.0.3,60.12982236701118,ninosDelConv2,2019_Aug_10_0945,249,
,,,25,0,150.0,150,,,,,0,59,59,89,,,,,,,,,,,,,,,,,,left,0,3.41546711733,,,001,3.0.3,60.12982236701118,ninosDelConv2,2019_Aug_10_0945,249,
,,,10,0,39.0,150,,,,,0,60,60,26,,,,,,,,,,,,,,,,,,right,0,3.2157240425,,,001,3.0.3,60.12982236701118,ninosDelConv2,2019_Aug_10_0945,249,
,,,5,0,35.0,6,,,,,0,61,61,31,,,,,,,,,,,,,,,,,,left,1,1.15079519304,,,001,3.0.3,60.12982236701118,ninosDelConv2,2019_Aug_10_0945,249,
,,,5,0,15.0,61,,,,,0,62,62,45,,,,,,,,,,,,,,,,,,left,0,1.40079133748,,,001,3.0.3,60.12982236701118,ninosDelConv2,2019_Aug_10_0945,249,
,,,5,0,36.0,61,,,,,0,63,63,46,,,,,,,,,,,,,,,,,,left,0,2.18434144824,,,001,3.0.3,60.12982236701118,ninosDelConv2,2019_Aug_10_0945,249,
,,,5,0,35.0,150,,,,,0,64,64,56,,,,,,,,,,,,,,,,,,left,0,1.38394727022,,,001,3.0.3,60.12982236701118,ninosDelConv2,2019_Aug_10_0945,249,
,,,25,0,150.0,4,,,,,0,65,65,64,,,,,,,,,,,,,,,,,,left,1,2.96711841901,,,001,3.0.3,60.12982236701118,ninosDelConv2,2019_Aug_10_0945,249,
,,,10,0,20.0,90,,,,,0,66,66,20,,,,,,,,,,,,,,,,,,left,0,1.45053035149,,,001,3.0.3,60.12982236701118,ninosDelConv2,2019_Aug_10_0945,249,
,,,25,0,75.0,31,,,,,0,67,67,72,,,,,,,,,,,,,,,,,,right,0,4.55077586439,,,001,3.0.3,60.12982236701118,ninosDelConv2,2019_Aug_10_0945,249,
,,,25,0,125.0,89,,,,,0,68,68,83,,,,,,,,,,,,,,,,,,left,1,1.13360825041,,,001,3.0.3,60.12982236701118,ninosDelConv2,2019_Aug_10_0945,249,
,,,10,0,39.0,59,,,,,0,69,69,16,,,,,,,,,,,,,,,,,,right,0,3.66685121274,,,001,3.0.3,60.12982236701118,ninosDelConv2,2019_Aug_10_0945,249,
,,,10,0,110.0,90,,,,,0,70,70,23,,,,,,,,,,,,,,,,,,right,1,1.26754292625,,,001,3.0.3,60.12982236701118,ninosDelConv2,2019_Aug_10_0945,249,
,,,5,0,150.0,90,,,,,0,71,71,54,,,,,,,,,,,,,,,,,,left,1,1.98405038984,,,001,3.0.3,60.12982236701118,ninosDelConv2,2019_Aug_10_0945,249,
,,,25,0,75.0,90,,,,,0,72,72,82,,,,,,,,,,,,,,,,,,right,0,4.69967881788,,,001,3.0.3,60.12982236701118,ninosDelConv2,2019_Aug_10_0945,249,
,,,10,0,150.0,30,,,,,0,73,73,14,,,,,,,,,,,,,,,,,,right,0,3.18362279818,,,001,3.0.3,60.12982236701118,ninosDelConv2,2019_Aug_10_0945,249,
,,,25,0,35.0,11,,,,,0,74,74,65,,,,,,,,,,,,,,,,,,left,0,2.93320101534,,,001,3.0.3,60.12982236701118,ninosDelConv2,2019_Aug_10_0945,249,
,,,25,0,55.0,60,,,,,0,75,75,76,,,,,,,,,,,,,,,,,,right,0,3.96694312594,,,001,3.0.3,60.12982236701118,ninosDelConv2,2019_Aug_10_0945,249,
,,,10,0,110.0,60,,,,,0,76,76,18,,,,,,,,,,,,,,,,,,right,1,2.13381592894,,,001,3.0.3,60.12982236701118,ninosDelConv2,2019_Aug_10_0945,249,
,,,10,0,149.0,61,,,,,0,77,77,19,,,,,,,,,,,,,,,,,,right,1,0.883612619946,,,001,3.0.3,60.12982236701118,ninosDelConv2,2019_Aug_10_0945,249,
,,,10,0,109.0,149,,,,,0,78,78,28,,,,,,,,,,,,,,,,,,right,0,1.30075298902,,,001,3.0.3,60.12982236701118,ninosDelConv2,2019_Aug_10_0945,249,
,,,5,0,14.0,149,,,,,0,79,79,55,,,,,,,,,,,,,,,,,,left,0,4.11626040831,,,001,3.0.3,60.12982236701118,ninosDelConv2,2019_Aug_10_0945,249,
,,,25,0,35.0,90,,,,,0,80,80,80,,,,,,,,,,,,,,,,,,left,0,2.01769945619,,,001,3.0.3,60.12982236701118,ninosDelConv2,2019_Aug_10_0945,249,
,,,5,0,104.0,90,,,,,0,81,81,53,,,,,,,,,,,,,,,,,,left,1,1.56693109707,,,001,3.0.3,60.12982236701118,ninosDelConv2,2019_Aug_10_0945,249,
,,,25,0,150.0,89,,,,,0,82,82,84,,,,,,,,,,,,,,,,,,left,1,1.50063023239,,,001,3.0.3,60.12982236701118,ninosDelConv2,2019_Aug_10_0945,249,
,,,25,0,150.0,29,,,,,0,83,83,74,,,,,,,,,,,,,,,,,,right,0,2.10006250918,,,001,3.0.3,60.12982236701118,ninosDelConv2,2019_Aug_10_0945,249,
,,,25,0,55.0,30,,,,,0,84,84,71,,,,,,,,,,,,,,,,,,right,1,5.68219629326,,,001,3.0.3,60.12982236701118,ninosDelConv2,2019_Aug_10_0945,249,
,,,10,0,20.0,5,,,,,0,85,85,0,,,,,,,,,,,,,,,,,,left,1,1.03499023814,,,001,3.0.3,60.12982236701118,ninosDelConv2,2019_Aug_10_0945,249,
,,,25,0,35.0,150,,,,,0,86,86,85,,,,,,,,,,,,,,,,,,right,0,5.64937125833,,,001,3.0.3,60.12982236701118,ninosDelConv2,2019_Aug_10_0945,249,
,,,5,0,35.0,31,,,,,0,87,87,41,,,,,,,,,,,,,,,,,,left,1,1.93214000424,,,001,3.0.3,60.12982236701118,ninosDelConv2,2019_Aug_10_0945,249,
,,,10,0,60.0,29,,,,,0,88,88,12,,,,,,,,,,,,,,,,,,left,0,1.88393184857,,,001,3.0.3,60.12982236701118,ninosDelConv2,2019_Aug_10_0945,249,
,,,25,0,75.0,151,,,,,0,89,89,87,,,,,,,,,,,,,,,,,,right,0,2.19933851296,,,001,3.0.3,60.12982236701118,ninosDelConv2,2019_Aug_10_0945,249,
,,,,,,,,,,,,,,,,,,,,,,,,,,,,,,,,,,,space,3.31708762702,001,3.0.3,60.12982236701118,ninosDelConv2,2019_Aug_10_0945,249,
