ssAmount,llAmount,llDelay,ss_am,ss_del,ll_am,ll_del,Practice.thisRepN,Practice.thisTrialN,Practice.thisN,Practice.thisIndex,trials.thisRepN,trials.thisTrialN,trials.thisN,trials.thisIndex,key1.keys,key1.rt,key2.keys,key2.rt,key2_2.keys,key2_2.rt,key2_3.keys,key2_3.rt,key3.keys,key3.rt,key4.keys,key4.rt,respP.keys,respP.corr,respP.rt,key5.keys,key5.rt,respT.keys,respT.corr,respT.rt,session,psychopyVersion,frameRate,expName,date,participant,
,,,,,,,,,,,,,,,space,17.8970622707,,,,,,,,,,,,,,,,,,,001,3.0.3,59.7087783713634,ninosDelConv2,2019_Aug_10_0823,284,
,,,,,,,,,,,,,,,,,space,41.9771944038,,,,,,,,,,,,,,,,,001,3.0.3,59.7087783713634,ninosDelConv2,2019_Aug_10_0823,284,
,,,,,,,,,,,,,,,,,,,space,14.0823250974,,,,,,,,,,,,,,,001,3.0.3,59.7087783713634,ninosDelConv2,2019_Aug_10_0823,284,
,,,,,,,,,,,,,,,,,,,,,space,5.56668750301,,,,,,,,,,,,,001,3.0.3,59.7087783713634,ninosDelConv2,2019_Aug_10_0823,284,
,,,,,,,,,,,,,,,,,,,,,,,left,7.26624469494,,,,,,,,,,,001,3.0.3,59.7087783713634,ninosDelConv2,2019_Aug_10_0823,284,
,,,,,,,,,,,,,,,,,,,,,,,,,space,2.26753600454,,,,,,,,,001,3.0.3,59.7087783713634,ninosDelConv2,2019_Aug_10_0823,284,
10,19,89,,,,,0,0,0,2,,,,,,,,,,,,,,,,,right,1,8.16596463707,,,,,,001,3.0.3,59.7087783713634,ninosDelConv2,2019_Aug_10_0823,284,
25,35,150,,,,,0,1,1,1,,,,,,,,,,,,,,,,,right,1,9.63255097391,,,,,,001,3.0.3,59.7087783713634,ninosDelConv2,2019_Aug_10_0823,284,
10,109,9,,,,,0,2,2,0,,,,,,,,,,,,,,,,,right,1,3.21761547762,,,,,,001,3.0.3,59.7087783713634,ninosDelConv2,2019_Aug_10_0823,284,
,,,,,,,,,,,,,,,,,,,,,,,,,,,,,,g,7.24966277904,,,,001,3.0.3,59.7087783713634,ninosDelConv2,2019_Aug_10_0823,284,
,,,25,0,75.0,31,,,,,0,0,0,72,,,,,,,,,,,,,,,,,,right,1,3.70026607555,001,3.0.3,59.7087783713634,ninosDelConv2,2019_Aug_10_0823,284,
,,,25,0,55.0,90,,,,,0,1,1,81,,,,,,,,,,,,,,,,,,right,1,2.48392083123,001,3.0.3,59.7087783713634,ninosDelConv2,2019_Aug_10_0823,284,
,,,10,0,39.0,6,,,,,0,2,2,1,,,,,,,,,,,,,,,,,,right,1,2.20035603538,001,3.0.3,59.7087783713634,ninosDelConv2,2019_Aug_10_0823,284,
,,,5,0,15.0,61,,,,,0,3,3,45,,,,,,,,,,,,,,,,,,right,0,4.71595044911,001,3.0.3,59.7087783713634,ninosDelConv2,2019_Aug_10_0823,284,
,,,10,0,151.0,151,,,,,0,4,4,29,,,,,,,,,,,,,,,,,,right,1,2.55050500901,001,3.0.3,59.7087783713634,ninosDelConv2,2019_Aug_10_0823,284,
,,,25,0,35.0,5,,,,,0,5,5,60,,,,,,,,,,,,,,,,,,right,1,1.38388392201,001,3.0.3,59.7087783713634,ninosDelConv2,2019_Aug_10_0823,284,
,,,5,0,106.0,152,,,,,0,6,6,58,,,,,,,,,,,,,,,,,,left,1,4.46697856183,001,3.0.3,59.7087783713634,ninosDelConv2,2019_Aug_10_0823,284,
,,,10,0,151.0,11,,,,,0,7,7,9,,,,,,,,,,,,,,,,,,left,1,4.80044537841,001,3.0.3,59.7087783713634,ninosDelConv2,2019_Aug_10_0823,284,
,,,25,0,75.0,5,,,,,0,8,8,62,,,,,,,,,,,,,,,,,,left,1,3.26736379566,001,3.0.3,59.7087783713634,ninosDelConv2,2019_Aug_10_0823,284,
,,,25,0,150.0,61,,,,,0,9,9,79,,,,,,,,,,,,,,,,,,left,1,1.46806527686,001,3.0.3,59.7087783713634,ninosDelConv2,2019_Aug_10_0823,284,
,,,25,0,125.0,4,,,,,0,10,10,63,,,,,,,,,,,,,,,,,,left,1,0.999784610351,001,3.0.3,59.7087783713634,ninosDelConv2,2019_Aug_10_0823,284,
,,,10,0,109.0,149,,,,,0,11,11,28,,,,,,,,,,,,,,,,,,right,0,3.56561209715,001,3.0.3,59.7087783713634,ninosDelConv2,2019_Aug_10_0823,284,
,,,25,0,75.0,10,,,,,0,12,12,67,,,,,,,,,,,,,,,,,,right,1,2.24998817674,001,3.0.3,59.7087783713634,ninosDelConv2,2019_Aug_10_0823,284,
,,,25,0,35.0,150,,,,,0,13,13,85,,,,,,,,,,,,,,,,,,right,0,2.53343062708,001,3.0.3,59.7087783713634,ninosDelConv2,2019_Aug_10_0823,284,
,,,10,0,60.0,29,,,,,0,14,14,12,,,,,,,,,,,,,,,,,,left,0,3.35116577696,001,3.0.3,59.7087783713634,ninosDelConv2,2019_Aug_10_0823,284,
,,,25,0,35.0,90,,,,,0,15,15,80,,,,,,,,,,,,,,,,,,right,0,2.8165656717,001,3.0.3,59.7087783713634,ninosDelConv2,2019_Aug_10_0823,284,
,,,10,0,20.0,90,,,,,0,16,16,20,,,,,,,,,,,,,,,,,,left,0,1.65134641645,001,3.0.3,59.7087783713634,ninosDelConv2,2019_Aug_10_0823,284,
,,,5,0,56.0,89,,,,,0,17,17,52,,,,,,,,,,,,,,,,,,right,0,4.50030329335,001,3.0.3,59.7087783713634,ninosDelConv2,2019_Aug_10_0823,284,
,,,10,0,39.0,29,,,,,0,18,18,11,,,,,,,,,,,,,,,,,,left,0,4.78360592027,001,3.0.3,59.7087783713634,ninosDelConv2,2019_Aug_10_0823,284,
,,,5,0,56.0,60,,,,,0,19,19,47,,,,,,,,,,,,,,,,,,left,1,6.08247931441,001,3.0.3,59.7087783713634,ninosDelConv2,2019_Aug_10_0823,284,
,,,5,0,150.0,30,,,,,0,20,20,44,,,,,,,,,,,,,,,,,,right,1,2.1170326405,001,3.0.3,59.7087783713634,ninosDelConv2,2019_Aug_10_0823,284,
,,,25,0,35.0,11,,,,,0,21,21,65,,,,,,,,,,,,,,,,,,right,1,2.56690135051,001,3.0.3,59.7087783713634,ninosDelConv2,2019_Aug_10_0823,284,
,,,5,0,104.0,90,,,,,0,22,22,53,,,,,,,,,,,,,,,,,,left,1,1.88387261273,001,3.0.3,59.7087783713634,ninosDelConv2,2019_Aug_10_0823,284,
,,,25,0,125.0,59,,,,,0,23,23,78,,,,,,,,,,,,,,,,,,left,0,2.08454325062,001,3.0.3,59.7087783713634,ninosDelConv2,2019_Aug_10_0823,284,
,,,10,0,150.0,30,,,,,0,24,24,14,,,,,,,,,,,,,,,,,,left,1,2.48449657438,001,3.0.3,59.7087783713634,ninosDelConv2,2019_Aug_10_0823,284,
,,,25,0,150.0,9,,,,,0,25,25,69,,,,,,,,,,,,,,,,,,right,1,1.55032406107,001,3.0.3,59.7087783713634,ninosDelConv2,2019_Aug_10_0823,284,
,,,25,0,55.0,11,,,,,0,26,26,66,,,,,,,,,,,,,,,,,,right,1,1.66660360899,001,3.0.3,59.7087783713634,ninosDelConv2,2019_Aug_10_0823,284,
,,,5,0,149.0,59,,,,,0,27,27,49,,,,,,,,,,,,,,,,,,right,0,2.31712290889,001,3.0.3,59.7087783713634,ninosDelConv2,2019_Aug_10_0823,284,
,,,10,0,149.0,89,,,,,0,28,28,24,,,,,,,,,,,,,,,,,,left,1,10.9798166052,001,3.0.3,59.7087783713634,ninosDelConv2,2019_Aug_10_0823,284,
,,,10,0,10.01,150,,,,,0,29,29,25,,,,,,,,,,,,,,,,,,right,1,8.69875063747,001,3.0.3,59.7087783713634,ninosDelConv2,2019_Aug_10_0823,284,
,,,10,0,21.0,31,,,,,0,30,30,10,,,,,,,,,,,,,,,,,,right,0,2.23366740148,001,3.0.3,59.7087783713634,ninosDelConv2,2019_Aug_10_0823,284,
,,,25,0,150.0,89,,,,,0,31,31,84,,,,,,,,,,,,,,,,,,right,0,1.65110738017,001,3.0.3,59.7087783713634,ninosDelConv2,2019_Aug_10_0823,284,
,,,25,0,35.0,60,,,,,0,32,32,75,,,,,,,,,,,,,,,,,,right,0,4.38288511045,001,3.0.3,59.7087783713634,ninosDelConv2,2019_Aug_10_0823,284,
,,,25,0,75.0,90,,,,,0,33,33,82,,,,,,,,,,,,,,,,,,left,0,2.93390366179,001,3.0.3,59.7087783713634,ninosDelConv2,2019_Aug_10_0823,284,
,,,25,0,75.0,59,,,,,0,34,34,77,,,,,,,,,,,,,,,,,,right,0,5.66617231583,001,3.0.3,59.7087783713634,ninosDelConv2,2019_Aug_10_0823,284,
,,,5,0,151.0,150,,,,,0,35,35,59,,,,,,,,,,,,,,,,,,right,0,2.18392833648,001,3.0.3,59.7087783713634,ninosDelConv2,2019_Aug_10_0823,284,
,,,5,0,35.0,89,,,,,0,36,36,51,,,,,,,,,,,,,,,,,,left,0,4.21625939687,001,3.0.3,59.7087783713634,ninosDelConv2,2019_Aug_10_0823,284,
,,,10,0,111.0,30,,,,,0,37,37,13,,,,,,,,,,,,,,,,,,right,1,2.55057697685,001,3.0.3,59.7087783713634,ninosDelConv2,2019_Aug_10_0823,284,
,,,25,0,55.0,60,,,,,0,38,38,76,,,,,,,,,,,,,,,,,,right,0,1.63386438787,001,3.0.3,59.7087783713634,ninosDelConv2,2019_Aug_10_0823,284,
,,,5,0,149.0,10,,,,,0,39,39,39,,,,,,,,,,,,,,,,,,left,1,1.64977546013,001,3.0.3,59.7087783713634,ninosDelConv2,2019_Aug_10_0823,284,
,,,5,0,104.0,10,,,,,0,40,40,38,,,,,,,,,,,,,,,,,,left,1,4.21685878665,001,3.0.3,59.7087783713634,ninosDelConv2,2019_Aug_10_0823,284,
,,,5,0,150.0,90,,,,,0,41,41,54,,,,,,,,,,,,,,,,,,right,0,4.85000400967,001,3.0.3,59.7087783713634,ninosDelConv2,2019_Aug_10_0823,284,
,,,5,0,105.0,60,,,,,0,42,42,48,,,,,,,,,,,,,,,,,,right,1,4.68275988637,001,3.0.3,59.7087783713634,ninosDelConv2,2019_Aug_10_0823,284,
,,,10,0,61.0,150,,,,,0,43,43,27,,,,,,,,,,,,,,,,,,right,0,2.80053996481,001,3.0.3,59.7087783713634,ninosDelConv2,2019_Aug_10_0823,284,
,,,25,0,55.0,151,,,,,0,44,44,86,,,,,,,,,,,,,,,,,,right,0,2.25025240169,001,3.0.3,59.7087783713634,ninosDelConv2,2019_Aug_10_0823,284,
,,,25,0,55.0,6,,,,,0,45,45,61,,,,,,,,,,,,,,,,,,left,1,5.84911520616,001,3.0.3,59.7087783713634,ninosDelConv2,2019_Aug_10_0823,284,
,,,5,0,35.0,150,,,,,0,46,46,56,,,,,,,,,,,,,,,,,,right,1,3.16712846071,001,3.0.3,59.7087783713634,ninosDelConv2,2019_Aug_10_0823,284,
,,,5,0,15.0,11,,,,,0,47,47,35,,,,,,,,,,,,,,,,,,right,1,1.26736225351,001,3.0.3,59.7087783713634,ninosDelConv2,2019_Aug_10_0823,284,
,,,10,0,111.0,10,,,,,0,48,48,8,,,,,,,,,,,,,,,,,,right,1,1.18505360582,001,3.0.3,59.7087783713634,ninosDelConv2,2019_Aug_10_0823,284,
,,,10,0,59.0,9,,,,,0,49,49,7,,,,,,,,,,,,,,,,,,right,1,1.38397645205,001,3.0.3,59.7087783713634,ninosDelConv2,2019_Aug_10_0823,284,
,,,25,0,125.0,9,,,,,0,50,50,68,,,,,,,,,,,,,,,,,,left,1,0.95069891098,001,3.0.3,59.7087783713634,ninosDelConv2,2019_Aug_10_0823,284,
,,,25,0,125.0,31,,,,,0,51,51,73,,,,,,,,,,,,,,,,,,left,0,2.90063085,001,3.0.3,59.7087783713634,ninosDelConv2,2019_Aug_10_0823,284,
,,,10,0,40.0,91,,,,,0,52,52,21,,,,,,,,,,,,,,,,,,left,0,3.98521676729,001,3.0.3,59.7087783713634,ninosDelConv2,2019_Aug_10_0823,284,
,,,25,0,150.0,29,,,,,0,53,53,74,,,,,,,,,,,,,,,,,,left,0,4.73427244578,001,3.0.3,59.7087783713634,ninosDelConv2,2019_Aug_10_0823,284,
,,,10,0,40.0,10,,,,,0,54,54,6,,,,,,,,,,,,,,,,,,left,0,5.15001038392,001,3.0.3,59.7087783713634,ninosDelConv2,2019_Aug_10_0823,284,
,,,5,0,35.0,31,,,,,0,55,55,41,,,,,,,,,,,,,,,,,,right,0,2.20029897522,001,3.0.3,59.7087783713634,ninosDelConv2,2019_Aug_10_0823,284,
,,,25,0,55.0,30,,,,,0,56,56,71,,,,,,,,,,,,,,,,,,left,0,9.09939639503,001,3.0.3,59.7087783713634,ninosDelConv2,2019_Aug_10_0823,284,
,,,5,0,14.0,149,,,,,0,57,57,55,,,,,,,,,,,,,,,,,,left,0,1.45074980252,001,3.0.3,59.7087783713634,ninosDelConv2,2019_Aug_10_0823,284,
,,,25,0,150.0,150,,,,,0,58,58,89,,,,,,,,,,,,,,,,,,right,0,1.98249483889,001,3.0.3,59.7087783713634,ninosDelConv2,2019_Aug_10_0823,284,
,,,5,0,15.0,91,,,,,0,59,59,50,,,,,,,,,,,,,,,,,,left,0,1.86715755623,001,3.0.3,59.7087783713634,ninosDelConv2,2019_Aug_10_0823,284,
,,,5,0,106.0,29,,,,,0,60,60,43,,,,,,,,,,,,,,,,,,right,0,11.7654371124,001,3.0.3,59.7087783713634,ninosDelConv2,2019_Aug_10_0823,284,
,,,5,0,56.0,29,,,,,0,61,61,42,,,,,,,,,,,,,,,,,,left,0,0.917174211703,001,3.0.3,59.7087783713634,ninosDelConv2,2019_Aug_10_0823,284,
,,,25,0,125.0,149,,,,,0,62,62,88,,,,,,,,,,,,,,,,,,left,0,2.58662517881,001,3.0.3,59.7087783713634,ninosDelConv2,2019_Aug_10_0823,284,
,,,25,0,125.0,89,,,,,0,63,63,83,,,,,,,,,,,,,,,,,,right,0,1.35082907008,001,3.0.3,59.7087783713634,ninosDelConv2,2019_Aug_10_0823,284,
,,,5,0,151.0,4,,,,,0,64,64,34,,,,,,,,,,,,,,,,,,right,1,3.6170290421,001,3.0.3,59.7087783713634,ninosDelConv2,2019_Aug_10_0823,284,
,,,5,0,14.0,31,,,,,0,65,65,40,,,,,,,,,,,,,,,,,,right,0,3.95025990694,001,3.0.3,59.7087783713634,ninosDelConv2,2019_Aug_10_0823,284,
,,,5,0,54.0,5,,,,,0,66,66,32,,,,,,,,,,,,,,,,,,left,1,4.51642410061,001,3.0.3,59.7087783713634,ninosDelConv2,2019_Aug_10_0823,284,
,,,10,0,61.0,4,,,,,0,67,67,2,,,,,,,,,,,,,,,,,,right,1,7.431625364,001,3.0.3,59.7087783713634,ninosDelConv2,2019_Aug_10_0823,284,
,,,5,0,36.0,61,,,,,0,68,68,46,,,,,,,,,,,,,,,,,,left,0,1.53407114127,001,3.0.3,59.7087783713634,ninosDelConv2,2019_Aug_10_0823,284,
,,,10,0,60.0,60,,,,,0,69,69,17,,,,,,,,,,,,,,,,,,right,1,5.41750166554,001,3.0.3,59.7087783713634,ninosDelConv2,2019_Aug_10_0823,284,
,,,25,0,35.0,30,,,,,0,70,70,70,,,,,,,,,,,,,,,,,,right,0,3.83425486495,001,3.0.3,59.7087783713634,ninosDelConv2,2019_Aug_10_0823,284,
,,,5,0,104.0,5,,,,,0,71,71,33,,,,,,,,,,,,,,,,,,left,1,4.0996739855,001,3.0.3,59.7087783713634,ninosDelConv2,2019_Aug_10_0823,284,
,,,5,0,56.0,9,,,,,0,72,72,37,,,,,,,,,,,,,,,,,,left,0,1.96780979086,001,3.0.3,59.7087783713634,ninosDelConv2,2019_Aug_10_0823,284,
,,,25,0,75.0,151,,,,,0,73,73,87,,,,,,,,,,,,,,,,,,right,0,1.20046604355,001,3.0.3,59.7087783713634,ninosDelConv2,2019_Aug_10_0823,284,
,,,10,0,20.0,59,,,,,0,74,74,15,,,,,,,,,,,,,,,,,,left,0,3.11671238334,001,3.0.3,59.7087783713634,ninosDelConv2,2019_Aug_10_0823,284,
,,,10,0,39.0,59,,,,,0,75,75,16,,,,,,,,,,,,,,,,,,left,0,0.935313204187,001,3.0.3,59.7087783713634,ninosDelConv2,2019_Aug_10_0823,284,
,,,10,0,110.0,60,,,,,0,76,76,18,,,,,,,,,,,,,,,,,,left,1,2.84981329471,001,3.0.3,59.7087783713634,ninosDelConv2,2019_Aug_10_0823,284,
,,,10,0,149.0,61,,,,,0,77,77,19,,,,,,,,,,,,,,,,,,left,0,2.20163860603,001,3.0.3,59.7087783713634,ninosDelConv2,2019_Aug_10_0823,284,
,,,10,0,150.0,5,,,,,0,78,78,4,,,,,,,,,,,,,,,,,,left,1,4.0319743054,001,3.0.3,59.7087783713634,ninosDelConv2,2019_Aug_10_0823,284,
,,,10,0,19.0,11,,,,,0,79,79,5,,,,,,,,,,,,,,,,,,right,0,3.73274878273,001,3.0.3,59.7087783713634,ninosDelConv2,2019_Aug_10_0823,284,
,,,5,0,55.0,151,,,,,0,80,80,57,,,,,,,,,,,,,,,,,,right,0,1.58327815798,001,3.0.3,59.7087783713634,ninosDelConv2,2019_Aug_10_0823,284,
,,,10,0,110.0,90,,,,,0,81,81,23,,,,,,,,,,,,,,,,,,right,0,3.78370359098,001,3.0.3,59.7087783713634,ninosDelConv2,2019_Aug_10_0823,284,
,,,10,0,39.0,150,,,,,0,82,82,26,,,,,,,,,,,,,,,,,,left,0,3.50041638559,001,3.0.3,59.7087783713634,ninosDelConv2,2019_Aug_10_0823,284,
,,,5,0,16.0,4,,,,,0,83,83,30,,,,,,,,,,,,,,,,,,right,1,11.3998906087,001,3.0.3,59.7087783713634,ninosDelConv2,2019_Aug_10_0823,284,
,,,10,0,20.0,5,,,,,0,84,84,0,,,,,,,,,,,,,,,,,,left,1,1.50019328517,001,3.0.3,59.7087783713634,ninosDelConv2,2019_Aug_10_0823,284,
,,,5,0,36.0,9,,,,,0,85,85,36,,,,,,,,,,,,,,,,,,right,0,3.26704970712,001,3.0.3,59.7087783713634,ninosDelConv2,2019_Aug_10_0823,284,
,,,10,0,109.0,5,,,,,0,86,86,3,,,,,,,,,,,,,,,,,,left,1,2.68496158964,001,3.0.3,59.7087783713634,ninosDelConv2,2019_Aug_10_0823,284,
,,,5,0,35.0,6,,,,,0,87,87,31,,,,,,,,,,,,,,,,,,left,1,4.08414331486,001,3.0.3,59.7087783713634,ninosDelConv2,2019_Aug_10_0823,284,
,,,25,0,150.0,4,,,,,0,88,88,64,,,,,,,,,,,,,,,,,,right,1,7.06601768767,001,3.0.3,59.7087783713634,ninosDelConv2,2019_Aug_10_0823,284,
,,,10,0,61.0,89,,,,,0,89,89,22,,,,,,,,,,,,,,,,,,left,0,1.01691039791,001,3.0.3,59.7087783713634,ninosDelConv2,2019_Aug_10_0823,284,
