ssAmount,llAmount,llDelay,ss_am,ss_del,ll_am,ll_del,Practice.thisRepN,Practice.thisTrialN,Practice.thisN,Practice.thisIndex,trials.thisRepN,trials.thisTrialN,trials.thisN,trials.thisIndex,key1.keys,key1.rt,key2.keys,key2.rt,key2_2.keys,key2_2.rt,key2_3.keys,key2_3.rt,key3.keys,key3.rt,key4.keys,key4.rt,respP.keys,respP.corr,respP.rt,key5.keys,key5.rt,respT.keys,respT.corr,respT.rt,key_resp_4.keys,key_resp_4.rt,session,psychopyVersion,frameRate,expName,date,participant,
,,,,,,,,,,,,,,,space,5.69870915374,,,,,,,,,,,,,,,,,,,,,001,3.0.3,60.208513878556275,ninosDelConv2,2019_Aug_10_0950,291,
,,,,,,,,,,,,,,,,,space,15.5805533608,,,,,,,,,,,,,,,,,,,001,3.0.3,60.208513878556275,ninosDelConv2,2019_Aug_10_0950,291,
,,,,,,,,,,,,,,,,,,,space,18.4971431333,,,,,,,,,,,,,,,,,001,3.0.3,60.208513878556275,ninosDelConv2,2019_Aug_10_0950,291,
,,,,,,,,,,,,,,,,,,,,,space,3.88262660045,,,,,,,,,,,,,,,001,3.0.3,60.208513878556275,ninosDelConv2,2019_Aug_10_0950,291,
,,,,,,,,,,,,,,,,,,,,,,,left,6.86567148834,,,,,,,,,,,,,001,3.0.3,60.208513878556275,ninosDelConv2,2019_Aug_10_0950,291,
,,,,,,,,,,,,,,,,,,,,,,,,,space,3.78296140518,,,,,,,,,,,001,3.0.3,60.208513878556275,ninosDelConv2,2019_Aug_10_0950,291,
25,35,150,,,,,0,0,0,1,,,,,,,,,,,,,,,,,right,0,7.33213112748,,,,,,,,001,3.0.3,60.208513878556275,ninosDelConv2,2019_Aug_10_0950,291,
10,109,9,,,,,0,1,1,0,,,,,,,,,,,,,,,,,right,1,3.29967362579,,,,,,,,001,3.0.3,60.208513878556275,ninosDelConv2,2019_Aug_10_0950,291,
10,19,89,,,,,0,2,2,2,,,,,,,,,,,,,,,,,right,0,4.43280695703,,,,,,,,001,3.0.3,60.208513878556275,ninosDelConv2,2019_Aug_10_0950,291,
,,,,,,,,,,,,,,,,,,,,,,,,,,,,,,g,33.6939145526,,,,,,001,3.0.3,60.208513878556275,ninosDelConv2,2019_Aug_10_0950,291,
,,,10,0,59.0,9,,,,,0,0,0,7,,,,,,,,,,,,,,,,,,left,1,4.19921986847,,,001,3.0.3,60.208513878556275,ninosDelConv2,2019_Aug_10_0950,291,
,,,25,0,150.0,89,,,,,0,1,1,84,,,,,,,,,,,,,,,,,,right,1,5.61580013088,,,001,3.0.3,60.208513878556275,ninosDelConv2,2019_Aug_10_0950,291,
,,,10,0,40.0,10,,,,,0,2,2,6,,,,,,,,,,,,,,,,,,left,1,4.73192437412,,,001,3.0.3,60.208513878556275,ninosDelConv2,2019_Aug_10_0950,291,
,,,5,0,15.0,61,,,,,0,3,3,45,,,,,,,,,,,,,,,,,,left,0,8.18233775233,,,001,3.0.3,60.208513878556275,ninosDelConv2,2019_Aug_10_0950,291,
,,,5,0,14.0,149,,,,,0,4,4,55,,,,,,,,,,,,,,,,,,right,0,6.53244799166,,,001,3.0.3,60.208513878556275,ninosDelConv2,2019_Aug_10_0950,291,
,,,25,0,35.0,60,,,,,0,5,5,75,,,,,,,,,,,,,,,,,,right,1,12.6973448489,,,001,3.0.3,60.208513878556275,ninosDelConv2,2019_Aug_10_0950,291,
,,,5,0,104.0,5,,,,,0,6,6,33,,,,,,,,,,,,,,,,,,right,1,3.71638291627,,,001,3.0.3,60.208513878556275,ninosDelConv2,2019_Aug_10_0950,291,
,,,25,0,35.0,30,,,,,0,7,7,70,,,,,,,,,,,,,,,,,,right,1,6.11577417105,,,001,3.0.3,60.208513878556275,ninosDelConv2,2019_Aug_10_0950,291,
,,,10,0,150.0,5,,,,,0,8,8,4,,,,,,,,,,,,,,,,,,left,1,2.45123072739,,,001,3.0.3,60.208513878556275,ninosDelConv2,2019_Aug_10_0950,291,
,,,5,0,56.0,9,,,,,0,9,9,37,,,,,,,,,,,,,,,,,,right,1,6.01644928091,,,001,3.0.3,60.208513878556275,ninosDelConv2,2019_Aug_10_0950,291,
,,,25,0,150.0,61,,,,,0,10,10,79,,,,,,,,,,,,,,,,,,left,1,2.79980548117,,,001,3.0.3,60.208513878556275,ninosDelConv2,2019_Aug_10_0950,291,
,,,25,0,55.0,60,,,,,0,11,11,76,,,,,,,,,,,,,,,,,,right,1,3.91602636696,,,001,3.0.3,60.208513878556275,ninosDelConv2,2019_Aug_10_0950,291,
,,,5,0,56.0,60,,,,,0,12,12,47,,,,,,,,,,,,,,,,,,left,1,3.21633433797,,,001,3.0.3,60.208513878556275,ninosDelConv2,2019_Aug_10_0950,291,
,,,25,0,75.0,59,,,,,0,13,13,77,,,,,,,,,,,,,,,,,,right,1,1.93315008947,,,001,3.0.3,60.208513878556275,ninosDelConv2,2019_Aug_10_0950,291,
,,,25,0,75.0,31,,,,,0,14,14,72,,,,,,,,,,,,,,,,,,left,1,4.19937254313,,,001,3.0.3,60.208513878556275,ninosDelConv2,2019_Aug_10_0950,291,
,,,25,0,125.0,31,,,,,0,15,15,73,,,,,,,,,,,,,,,,,,left,1,5.30002009959,,,001,3.0.3,60.208513878556275,ninosDelConv2,2019_Aug_10_0950,291,
,,,10,0,110.0,90,,,,,0,16,16,23,,,,,,,,,,,,,,,,,,right,1,6.18246883663,,,001,3.0.3,60.208513878556275,ninosDelConv2,2019_Aug_10_0950,291,
,,,25,0,55.0,30,,,,,0,17,17,71,,,,,,,,,,,,,,,,,,right,1,2.04977810769,,,001,3.0.3,60.208513878556275,ninosDelConv2,2019_Aug_10_0950,291,
,,,10,0,21.0,31,,,,,0,18,18,10,,,,,,,,,,,,,,,,,,right,0,12.9644627882,,,001,3.0.3,60.208513878556275,ninosDelConv2,2019_Aug_10_0950,291,
,,,5,0,14.0,31,,,,,0,19,19,40,,,,,,,,,,,,,,,,,,left,1,7.86552138396,,,001,3.0.3,60.208513878556275,ninosDelConv2,2019_Aug_10_0950,291,
,,,5,0,104.0,10,,,,,0,20,20,38,,,,,,,,,,,,,,,,,,left,1,1.2001713863,,,001,3.0.3,60.208513878556275,ninosDelConv2,2019_Aug_10_0950,291,
,,,5,0,106.0,29,,,,,0,21,21,43,,,,,,,,,,,,,,,,,,right,1,2.94983172374,,,001,3.0.3,60.208513878556275,ninosDelConv2,2019_Aug_10_0950,291,
,,,5,0,15.0,91,,,,,0,22,22,50,,,,,,,,,,,,,,,,,,right,0,7.26434100836,,,001,3.0.3,60.208513878556275,ninosDelConv2,2019_Aug_10_0950,291,
,,,10,0,20.0,59,,,,,0,23,23,15,,,,,,,,,,,,,,,,,,left,0,9.06529746113,,,001,3.0.3,60.208513878556275,ninosDelConv2,2019_Aug_10_0950,291,
,,,25,0,55.0,90,,,,,0,24,24,81,,,,,,,,,,,,,,,,,,left,1,2.56647593472,,,001,3.0.3,60.208513878556275,ninosDelConv2,2019_Aug_10_0950,291,
,,,25,0,150.0,4,,,,,0,25,25,64,,,,,,,,,,,,,,,,,,right,1,6.88239578926,,,001,3.0.3,60.208513878556275,ninosDelConv2,2019_Aug_10_0950,291,
,,,10,0,61.0,4,,,,,0,26,26,2,,,,,,,,,,,,,,,,,,left,1,2.61654705438,,,001,3.0.3,60.208513878556275,ninosDelConv2,2019_Aug_10_0950,291,
,,,25,0,125.0,89,,,,,0,27,27,83,,,,,,,,,,,,,,,,,,left,1,11.6644565682,,,001,3.0.3,60.208513878556275,ninosDelConv2,2019_Aug_10_0950,291,
,,,10,0,111.0,30,,,,,0,28,28,13,,,,,,,,,,,,,,,,,,right,1,1.9165435074,,,001,3.0.3,60.208513878556275,ninosDelConv2,2019_Aug_10_0950,291,
,,,10,0,60.0,29,,,,,0,29,29,12,,,,,,,,,,,,,,,,,,right,1,1.36596424328,,,001,3.0.3,60.208513878556275,ninosDelConv2,2019_Aug_10_0950,291,
,,,10,0,109.0,5,,,,,0,30,30,3,,,,,,,,,,,,,,,,,,right,1,1.90005670039,,,001,3.0.3,60.208513878556275,ninosDelConv2,2019_Aug_10_0950,291,
,,,5,0,105.0,60,,,,,0,31,31,48,,,,,,,,,,,,,,,,,,right,1,2.59976312295,,,001,3.0.3,60.208513878556275,ninosDelConv2,2019_Aug_10_0950,291,
,,,10,0,149.0,61,,,,,0,32,32,19,,,,,,,,,,,,,,,,,,right,1,1.8667818495,,,001,3.0.3,60.208513878556275,ninosDelConv2,2019_Aug_10_0950,291,
,,,5,0,36.0,9,,,,,0,33,33,36,,,,,,,,,,,,,,,,,,left,1,1.48344353839,,,001,3.0.3,60.208513878556275,ninosDelConv2,2019_Aug_10_0950,291,
,,,25,0,150.0,9,,,,,0,34,34,69,,,,,,,,,,,,,,,,,,left,1,3.23312957863,,,001,3.0.3,60.208513878556275,ninosDelConv2,2019_Aug_10_0950,291,
,,,10,0,110.0,60,,,,,0,35,35,18,,,,,,,,,,,,,,,,,,left,1,3.8495527455,,,001,3.0.3,60.208513878556275,ninosDelConv2,2019_Aug_10_0950,291,
,,,5,0,150.0,30,,,,,0,36,36,44,,,,,,,,,,,,,,,,,,left,1,2.166232889,,,001,3.0.3,60.208513878556275,ninosDelConv2,2019_Aug_10_0950,291,
,,,10,0,151.0,11,,,,,0,37,37,9,,,,,,,,,,,,,,,,,,right,1,1.38350692151,,,001,3.0.3,60.208513878556275,ninosDelConv2,2019_Aug_10_0950,291,
,,,25,0,150.0,29,,,,,0,38,38,74,,,,,,,,,,,,,,,,,,left,1,4.46622728579,,,001,3.0.3,60.208513878556275,ninosDelConv2,2019_Aug_10_0950,291,
,,,25,0,55.0,6,,,,,0,39,39,61,,,,,,,,,,,,,,,,,,right,1,10.4314544754,,,001,3.0.3,60.208513878556275,ninosDelConv2,2019_Aug_10_0950,291,
,,,10,0,20.0,5,,,,,0,40,40,0,,,,,,,,,,,,,,,,,,right,1,1.38321647982,,,001,3.0.3,60.208513878556275,ninosDelConv2,2019_Aug_10_0950,291,
,,,5,0,56.0,29,,,,,0,41,41,42,,,,,,,,,,,,,,,,,,left,1,2.19995753897,,,001,3.0.3,60.208513878556275,ninosDelConv2,2019_Aug_10_0950,291,
,,,5,0,35.0,150,,,,,0,42,42,56,,,,,,,,,,,,,,,,,,right,1,5.73249394827,,,001,3.0.3,60.208513878556275,ninosDelConv2,2019_Aug_10_0950,291,
,,,25,0,35.0,90,,,,,0,43,43,80,,,,,,,,,,,,,,,,,,left,0,3.51618325688,,,001,3.0.3,60.208513878556275,ninosDelConv2,2019_Aug_10_0950,291,
,,,5,0,35.0,31,,,,,0,44,44,41,,,,,,,,,,,,,,,,,,right,1,3.21645514115,,,001,3.0.3,60.208513878556275,ninosDelConv2,2019_Aug_10_0950,291,
,,,25,0,35.0,5,,,,,0,45,45,60,,,,,,,,,,,,,,,,,,right,1,1.16687083261,,,001,3.0.3,60.208513878556275,ninosDelConv2,2019_Aug_10_0950,291,
,,,5,0,16.0,4,,,,,0,46,46,30,,,,,,,,,,,,,,,,,,left,1,2.06661241661,,,001,3.0.3,60.208513878556275,ninosDelConv2,2019_Aug_10_0950,291,
,,,25,0,125.0,149,,,,,0,47,47,88,,,,,,,,,,,,,,,,,,left,1,2.21660267525,,,001,3.0.3,60.208513878556275,ninosDelConv2,2019_Aug_10_0950,291,
,,,10,0,39.0,6,,,,,0,48,48,1,,,,,,,,,,,,,,,,,,left,1,2.43317090874,,,001,3.0.3,60.208513878556275,ninosDelConv2,2019_Aug_10_0950,291,
,,,10,0,150.0,30,,,,,0,49,49,14,,,,,,,,,,,,,,,,,,left,1,1.93324416174,,,001,3.0.3,60.208513878556275,ninosDelConv2,2019_Aug_10_0950,291,
,,,5,0,151.0,4,,,,,0,50,50,34,,,,,,,,,,,,,,,,,,left,1,2.36650451624,,,001,3.0.3,60.208513878556275,ninosDelConv2,2019_Aug_10_0950,291,
,,,10,0,20.0,90,,,,,0,51,51,20,,,,,,,,,,,,,,,,,,left,0,3.64957824268,,,001,3.0.3,60.208513878556275,ninosDelConv2,2019_Aug_10_0950,291,
,,,5,0,15.0,11,,,,,0,52,52,35,,,,,,,,,,,,,,,,,,right,1,2.98295389996,,,001,3.0.3,60.208513878556275,ninosDelConv2,2019_Aug_10_0950,291,
,,,5,0,106.0,152,,,,,0,53,53,58,,,,,,,,,,,,,,,,,,right,1,1.06670803105,,,001,3.0.3,60.208513878556275,ninosDelConv2,2019_Aug_10_0950,291,
,,,10,0,109.0,149,,,,,0,54,54,28,,,,,,,,,,,,,,,,,,right,1,3.29957903947,,,001,3.0.3,60.208513878556275,ninosDelConv2,2019_Aug_10_0950,291,
,,,10,0,149.0,89,,,,,0,55,55,24,,,,,,,,,,,,,,,,,,left,1,2.33326770551,,,001,3.0.3,60.208513878556275,ninosDelConv2,2019_Aug_10_0950,291,
,,,25,0,75.0,10,,,,,0,56,56,67,,,,,,,,,,,,,,,,,,right,1,1.59913494641,,,001,3.0.3,60.208513878556275,ninosDelConv2,2019_Aug_10_0950,291,
,,,25,0,35.0,150,,,,,0,57,57,85,,,,,,,,,,,,,,,,,,left,1,1.31671921177,,,001,3.0.3,60.208513878556275,ninosDelConv2,2019_Aug_10_0950,291,
,,,25,0,55.0,11,,,,,0,58,58,66,,,,,,,,,,,,,,,,,,right,1,1.16706308959,,,001,3.0.3,60.208513878556275,ninosDelConv2,2019_Aug_10_0950,291,
,,,10,0,60.0,60,,,,,0,59,59,17,,,,,,,,,,,,,,,,,,right,1,1.81668142864,,,001,3.0.3,60.208513878556275,ninosDelConv2,2019_Aug_10_0950,291,
,,,25,0,75.0,90,,,,,0,60,60,82,,,,,,,,,,,,,,,,,,left,1,2.53313734088,,,001,3.0.3,60.208513878556275,ninosDelConv2,2019_Aug_10_0950,291,
,,,5,0,149.0,10,,,,,0,61,61,39,,,,,,,,,,,,,,,,,,right,1,1.41669284069,,,001,3.0.3,60.208513878556275,ninosDelConv2,2019_Aug_10_0950,291,
,,,25,0,35.0,11,,,,,0,62,62,65,,,,,,,,,,,,,,,,,,right,1,8.01549313658,,,001,3.0.3,60.208513878556275,ninosDelConv2,2019_Aug_10_0950,291,
,,,10,0,61.0,89,,,,,0,63,63,22,,,,,,,,,,,,,,,,,,right,1,3.19993080805,,,001,3.0.3,60.208513878556275,ninosDelConv2,2019_Aug_10_0950,291,
,,,25,0,55.0,151,,,,,0,64,64,86,,,,,,,,,,,,,,,,,,left,0,3.71632739821,,,001,3.0.3,60.208513878556275,ninosDelConv2,2019_Aug_10_0950,291,
,,,5,0,150.0,90,,,,,0,65,65,54,,,,,,,,,,,,,,,,,,left,1,3.94949347483,,,001,3.0.3,60.208513878556275,ninosDelConv2,2019_Aug_10_0950,291,
,,,10,0,39.0,29,,,,,0,66,66,11,,,,,,,,,,,,,,,,,,right,1,3.89954161618,,,001,3.0.3,60.208513878556275,ninosDelConv2,2019_Aug_10_0950,291,
,,,10,0,111.0,10,,,,,0,67,67,8,,,,,,,,,,,,,,,,,,right,1,5.41554238315,,,001,3.0.3,60.208513878556275,ninosDelConv2,2019_Aug_10_0950,291,
,,,10,0,39.0,59,,,,,0,68,68,16,,,,,,,,,,,,,,,,,,right,1,1.43346494883,,,001,3.0.3,60.208513878556275,ninosDelConv2,2019_Aug_10_0950,291,
,,,5,0,149.0,59,,,,,0,69,69,49,,,,,,,,,,,,,,,,,,right,1,1.30002832449,,,001,3.0.3,60.208513878556275,ninosDelConv2,2019_Aug_10_0950,291,
,,,25,0,125.0,4,,,,,0,70,70,63,,,,,,,,,,,,,,,,,,right,1,2.66646138693,,,001,3.0.3,60.208513878556275,ninosDelConv2,2019_Aug_10_0950,291,
,,,25,0,75.0,5,,,,,0,71,71,62,,,,,,,,,,,,,,,,,,left,1,6.51578897586,,,001,3.0.3,60.208513878556275,ninosDelConv2,2019_Aug_10_0950,291,
,,,10,0,40.0,91,,,,,0,72,72,21,,,,,,,,,,,,,,,,,,left,1,2.28324028061,,,001,3.0.3,60.208513878556275,ninosDelConv2,2019_Aug_10_0950,291,
,,,25,0,125.0,59,,,,,0,73,73,78,,,,,,,,,,,,,,,,,,right,1,1.46679531777,,,001,3.0.3,60.208513878556275,ninosDelConv2,2019_Aug_10_0950,291,
,,,10,0,61.0,150,,,,,0,74,74,27,,,,,,,,,,,,,,,,,,right,1,7.89873866056,,,001,3.0.3,60.208513878556275,ninosDelConv2,2019_Aug_10_0950,291,
,,,10,0,39.0,150,,,,,0,75,75,26,,,,,,,,,,,,,,,,,,left,0,2.26650312829,,,001,3.0.3,60.208513878556275,ninosDelConv2,2019_Aug_10_0950,291,
,,,5,0,55.0,151,,,,,0,76,76,57,,,,,,,,,,,,,,,,,,right,1,0.566759179628,,,001,3.0.3,60.208513878556275,ninosDelConv2,2019_Aug_10_0950,291,
,,,25,0,150.0,150,,,,,0,77,77,89,,,,,,,,,,,,,,,,,,left,1,0.516924011714,,,001,3.0.3,60.208513878556275,ninosDelConv2,2019_Aug_10_0950,291,
,,,5,0,36.0,61,,,,,0,78,78,46,,,,,,,,,,,,,,,,,,right,1,3.36616729544,,,001,3.0.3,60.208513878556275,ninosDelConv2,2019_Aug_10_0950,291,
,,,25,0,75.0,151,,,,,0,79,79,87,,,,,,,,,,,,,,,,,,left,1,3.54951465394,,,001,3.0.3,60.208513878556275,ninosDelConv2,2019_Aug_10_0950,291,
,,,5,0,35.0,6,,,,,0,80,80,31,,,,,,,,,,,,,,,,,,left,1,1.13336979705,,,001,3.0.3,60.208513878556275,ninosDelConv2,2019_Aug_10_0950,291,
,,,5,0,54.0,5,,,,,0,81,81,32,,,,,,,,,,,,,,,,,,right,1,1.38331466453,,,001,3.0.3,60.208513878556275,ninosDelConv2,2019_Aug_10_0950,291,
,,,5,0,56.0,89,,,,,0,82,82,52,,,,,,,,,,,,,,,,,,left,1,1.48330320108,,,001,3.0.3,60.208513878556275,ninosDelConv2,2019_Aug_10_0950,291,
,,,5,0,104.0,90,,,,,0,83,83,53,,,,,,,,,,,,,,,,,,right,1,1.38332597376,,,001,3.0.3,60.208513878556275,ninosDelConv2,2019_Aug_10_0950,291,
,,,25,0,125.0,9,,,,,0,84,84,68,,,,,,,,,,,,,,,,,,right,1,0.416993563504,,,001,3.0.3,60.208513878556275,ninosDelConv2,2019_Aug_10_0950,291,
,,,10,0,151.0,151,,,,,0,85,85,29,,,,,,,,,,,,,,,,,,right,1,0.916785113757,,,001,3.0.3,60.208513878556275,ninosDelConv2,2019_Aug_10_0950,291,
,,,5,0,151.0,150,,,,,0,86,86,59,,,,,,,,,,,,,,,,,,left,1,1.41665685676,,,001,3.0.3,60.208513878556275,ninosDelConv2,2019_Aug_10_0950,291,
,,,5,0,35.0,89,,,,,0,87,87,51,,,,,,,,,,,,,,,,,,left,1,5.79919324037,,,001,3.0.3,60.208513878556275,ninosDelConv2,2019_Aug_10_0950,291,
,,,10,0,19.0,11,,,,,0,88,88,5,,,,,,,,,,,,,,,,,,left,0,1.94989289641,,,001,3.0.3,60.208513878556275,ninosDelConv2,2019_Aug_10_0950,291,
,,,10,0,10.01,150,,,,,0,89,89,25,,,,,,,,,,,,,,,,,,left,0,1.20005212529,,,001,3.0.3,60.208513878556275,ninosDelConv2,2019_Aug_10_0950,291,
,,,,,,,,,,,,,,,,,,,,,,,,,,,,,,,,,,,space,110.479124953,001,3.0.3,60.208513878556275,ninosDelConv2,2019_Aug_10_0950,291,
