ssAmount,llAmount,llDelay,ss_am,ss_del,ll_am,ll_del,Practice.thisRepN,Practice.thisTrialN,Practice.thisN,Practice.thisIndex,trials.thisRepN,trials.thisTrialN,trials.thisN,trials.thisIndex,key1.keys,key1.rt,key2.keys,key2.rt,key2_2.keys,key2_2.rt,key2_3.keys,key2_3.rt,key3.keys,key3.rt,key4.keys,key4.rt,respP.keys,respP.corr,respP.rt,key5.keys,key5.rt,respT.keys,respT.corr,respT.rt,key_resp_4.keys,key_resp_4.rt,session,psychopyVersion,frameRate,expName,date,participant,
,,,,,,,,,,,,,,,space,11.3482457348,,,,,,,,,,,,,,,,,,,,,001,3.0.3,60.063604583168456,ninosDelConv2,2019_May_09_0802,98,
,,,,,,,,,,,,,,,,,space,28.8945369287,,,,,,,,,,,,,,,,,,,001,3.0.3,60.063604583168456,ninosDelConv2,2019_May_09_0802,98,
,,,,,,,,,,,,,,,,,,,space,17.4307711446,,,,,,,,,,,,,,,,,001,3.0.3,60.063604583168456,ninosDelConv2,2019_May_09_0802,98,
,,,,,,,,,,,,,,,,,,,,,space,5.51595679019,,,,,,,,,,,,,,,001,3.0.3,60.063604583168456,ninosDelConv2,2019_May_09_0802,98,
,,,,,,,,,,,,,,,,,,,,,,,right,2.77131170454,,,,,,,,,,,,,001,3.0.3,60.063604583168456,ninosDelConv2,2019_May_09_0802,98,
,,,,,,,,,,,,,,,,,,,,,,,,,space,2.16739953822,,,,,,,,,,,001,3.0.3,60.063604583168456,ninosDelConv2,2019_May_09_0802,98,
10,109,9,,,,,0,0,0,0,,,,,,,,,,,,,,,,,right,1,2.48245477863,,,,,,,,001,3.0.3,60.063604583168456,ninosDelConv2,2019_May_09_0802,98,
10,19,89,,,,,0,1,1,2,,,,,,,,,,,,,,,,,left,0,4.6493232972,,,,,,,,001,3.0.3,60.063604583168456,ninosDelConv2,2019_May_09_0802,98,
25,35,150,,,,,0,2,2,1,,,,,,,,,,,,,,,,,left,1,5.94980352838,,,,,,,,001,3.0.3,60.063604583168456,ninosDelConv2,2019_May_09_0802,98,
,,,,,,,,,,,,,,,,,,,,,,,,,,,,,,g,131.392097736,,,,,,001,3.0.3,60.063604583168456,ninosDelConv2,2019_May_09_0802,98,
,,,5,0,150.0,90,,,,,0,0,0,54,,,,,,,,,,,,,,,,,,left,1,1.54980476201,,,001,3.0.3,60.063604583168456,ninosDelConv2,2019_May_09_0802,98,
,,,10,0,109.0,5,,,,,0,1,1,3,,,,,,,,,,,,,,,,,,left,1,2.23305570893,,,001,3.0.3,60.063604583168456,ninosDelConv2,2019_May_09_0802,98,
,,,5,0,54.0,5,,,,,0,2,2,32,,,,,,,,,,,,,,,,,,left,1,3.64968056604,,,001,3.0.3,60.063604583168456,ninosDelConv2,2019_May_09_0802,98,
,,,5,0,15.0,11,,,,,0,3,3,35,,,,,,,,,,,,,,,,,,right,1,2.70012018597,,,001,3.0.3,60.063604583168456,ninosDelConv2,2019_May_09_0802,98,
,,,25,0,55.0,30,,,,,0,4,4,71,,,,,,,,,,,,,,,,,,left,1,2.51630429178,,,001,3.0.3,60.063604583168456,ninosDelConv2,2019_May_09_0802,98,
,,,5,0,35.0,6,,,,,0,5,5,31,,,,,,,,,,,,,,,,,,left,1,3.56614452368,,,001,3.0.3,60.063604583168456,ninosDelConv2,2019_May_09_0802,98,
,,,25,0,125.0,9,,,,,0,6,6,68,,,,,,,,,,,,,,,,,,left,1,1.46684651729,,,001,3.0.3,60.063604583168456,ninosDelConv2,2019_May_09_0802,98,
,,,10,0,110.0,90,,,,,0,7,7,23,,,,,,,,,,,,,,,,,,left,1,2.66656008596,,,001,3.0.3,60.063604583168456,ninosDelConv2,2019_May_09_0802,98,
,,,10,0,150.0,5,,,,,0,8,8,4,,,,,,,,,,,,,,,,,,right,1,4.00019431254,,,001,3.0.3,60.063604583168456,ninosDelConv2,2019_May_09_0802,98,
,,,25,0,55.0,6,,,,,0,9,9,61,,,,,,,,,,,,,,,,,,right,1,2.71559325047,,,001,3.0.3,60.063604583168456,ninosDelConv2,2019_May_09_0802,98,
,,,10,0,151.0,11,,,,,0,10,10,9,,,,,,,,,,,,,,,,,,left,1,3.21631087177,,,001,3.0.3,60.063604583168456,ninosDelConv2,2019_May_09_0802,98,
,,,10,0,149.0,89,,,,,0,11,11,24,,,,,,,,,,,,,,,,,,right,0,2.66659452766,,,001,3.0.3,60.063604583168456,ninosDelConv2,2019_May_09_0802,98,
,,,5,0,35.0,31,,,,,0,12,12,41,,,,,,,,,,,,,,,,,,left,1,5.94849114493,,,001,3.0.3,60.063604583168456,ninosDelConv2,2019_May_09_0802,98,
,,,5,0,104.0,5,,,,,0,13,13,33,,,,,,,,,,,,,,,,,,right,1,1.25011360645,,,001,3.0.3,60.063604583168456,ninosDelConv2,2019_May_09_0802,98,
,,,5,0,16.0,4,,,,,0,14,14,30,,,,,,,,,,,,,,,,,,left,1,3.96595668746,,,001,3.0.3,60.063604583168456,ninosDelConv2,2019_May_09_0802,98,
,,,5,0,14.0,31,,,,,0,15,15,40,,,,,,,,,,,,,,,,,,right,0,3.23440870317,,,001,3.0.3,60.063604583168456,ninosDelConv2,2019_May_09_0802,98,
,,,10,0,20.0,5,,,,,0,16,16,0,,,,,,,,,,,,,,,,,,right,1,2.26609404339,,,001,3.0.3,60.063604583168456,ninosDelConv2,2019_May_09_0802,98,
,,,25,0,35.0,5,,,,,0,17,17,60,,,,,,,,,,,,,,,,,,left,1,4.13196159387,,,001,3.0.3,60.063604583168456,ninosDelConv2,2019_May_09_0802,98,
,,,25,0,55.0,60,,,,,0,18,18,76,,,,,,,,,,,,,,,,,,right,0,5.13247770537,,,001,3.0.3,60.063604583168456,ninosDelConv2,2019_May_09_0802,98,
,,,25,0,125.0,31,,,,,0,19,19,73,,,,,,,,,,,,,,,,,,left,1,2.65100066038,,,001,3.0.3,60.063604583168456,ninosDelConv2,2019_May_09_0802,98,
,,,10,0,40.0,10,,,,,0,20,20,6,,,,,,,,,,,,,,,,,,left,1,1.99924896518,,,001,3.0.3,60.063604583168456,ninosDelConv2,2019_May_09_0802,98,
,,,25,0,35.0,60,,,,,0,21,21,75,,,,,,,,,,,,,,,,,,left,0,1.88370424137,,,001,3.0.3,60.063604583168456,ninosDelConv2,2019_May_09_0802,98,
,,,5,0,151.0,150,,,,,0,22,22,59,,,,,,,,,,,,,,,,,,left,0,3.23375790892,,,001,3.0.3,60.063604583168456,ninosDelConv2,2019_May_09_0802,98,
,,,25,0,75.0,151,,,,,0,23,23,87,,,,,,,,,,,,,,,,,,left,0,6.1830818234,,,001,3.0.3,60.063604583168456,ninosDelConv2,2019_May_09_0802,98,
,,,5,0,36.0,61,,,,,0,24,24,46,,,,,,,,,,,,,,,,,,left,0,5.19922624389,,,001,3.0.3,60.063604583168456,ninosDelConv2,2019_May_09_0802,98,
,,,25,0,125.0,89,,,,,0,25,25,83,,,,,,,,,,,,,,,,,,right,1,2.46647331305,,,001,3.0.3,60.063604583168456,ninosDelConv2,2019_May_09_0802,98,
,,,5,0,55.0,151,,,,,0,26,26,57,,,,,,,,,,,,,,,,,,left,1,7.96596953925,,,001,3.0.3,60.063604583168456,ninosDelConv2,2019_May_09_0802,98,
,,,5,0,56.0,29,,,,,0,27,27,42,,,,,,,,,,,,,,,,,,right,1,2.53414663719,,,001,3.0.3,60.063604583168456,ninosDelConv2,2019_May_09_0802,98,
,,,10,0,110.0,60,,,,,0,28,28,18,,,,,,,,,,,,,,,,,,right,1,2.53366342559,,,001,3.0.3,60.063604583168456,ninosDelConv2,2019_May_09_0802,98,
,,,25,0,55.0,11,,,,,0,29,29,66,,,,,,,,,,,,,,,,,,right,1,1.46644555451,,,001,3.0.3,60.063604583168456,ninosDelConv2,2019_May_09_0802,98,
,,,5,0,56.0,89,,,,,0,30,30,52,,,,,,,,,,,,,,,,,,left,0,3.44968837965,,,001,3.0.3,60.063604583168456,ninosDelConv2,2019_May_09_0802,98,
,,,25,0,75.0,5,,,,,0,31,31,62,,,,,,,,,,,,,,,,,,right,1,4.69968786556,,,001,3.0.3,60.063604583168456,ninosDelConv2,2019_May_09_0802,98,
,,,25,0,75.0,10,,,,,0,32,32,67,,,,,,,,,,,,,,,,,,right,1,1.23294313112,,,001,3.0.3,60.063604583168456,ninosDelConv2,2019_May_09_0802,98,
,,,25,0,150.0,89,,,,,0,33,33,84,,,,,,,,,,,,,,,,,,right,1,2.29927477101,,,001,3.0.3,60.063604583168456,ninosDelConv2,2019_May_09_0802,98,
,,,25,0,35.0,150,,,,,0,34,34,85,,,,,,,,,,,,,,,,,,right,0,2.9156368426,,,001,3.0.3,60.063604583168456,ninosDelConv2,2019_May_09_0802,98,
,,,10,0,21.0,31,,,,,0,35,35,10,,,,,,,,,,,,,,,,,,right,0,1.91626450419,,,001,3.0.3,60.063604583168456,ninosDelConv2,2019_May_09_0802,98,
,,,10,0,61.0,150,,,,,0,36,36,27,,,,,,,,,,,,,,,,,,left,0,4.68349717977,,,001,3.0.3,60.063604583168456,ninosDelConv2,2019_May_09_0802,98,
,,,25,0,35.0,30,,,,,0,37,37,70,,,,,,,,,,,,,,,,,,right,0,3.73319707438,,,001,3.0.3,60.063604583168456,ninosDelConv2,2019_May_09_0802,98,
,,,5,0,150.0,30,,,,,0,38,38,44,,,,,,,,,,,,,,,,,,left,1,1.43380201468,,,001,3.0.3,60.063604583168456,ninosDelConv2,2019_May_09_0802,98,
,,,5,0,56.0,60,,,,,0,39,39,47,,,,,,,,,,,,,,,,,,left,1,3.98403138621,,,001,3.0.3,60.063604583168456,ninosDelConv2,2019_May_09_0802,98,
,,,10,0,61.0,4,,,,,0,40,40,2,,,,,,,,,,,,,,,,,,right,1,1.71674062172,,,001,3.0.3,60.063604583168456,ninosDelConv2,2019_May_09_0802,98,
,,,5,0,149.0,59,,,,,0,41,41,49,,,,,,,,,,,,,,,,,,right,1,1.68305714848,,,001,3.0.3,60.063604583168456,ninosDelConv2,2019_May_09_0802,98,
,,,10,0,151.0,151,,,,,0,42,42,29,,,,,,,,,,,,,,,,,,right,0,5.69927867781,,,001,3.0.3,60.063604583168456,ninosDelConv2,2019_May_09_0802,98,
,,,10,0,111.0,10,,,,,0,43,43,8,,,,,,,,,,,,,,,,,,right,1,3.94924629247,,,001,3.0.3,60.063604583168456,ninosDelConv2,2019_May_09_0802,98,
,,,10,0,111.0,30,,,,,0,44,44,13,,,,,,,,,,,,,,,,,,right,1,1.21655145008,,,001,3.0.3,60.063604583168456,ninosDelConv2,2019_May_09_0802,98,
,,,5,0,36.0,9,,,,,0,45,45,36,,,,,,,,,,,,,,,,,,right,1,0.950532972813,,,001,3.0.3,60.063604583168456,ninosDelConv2,2019_May_09_0802,98,
,,,25,0,35.0,90,,,,,0,46,46,80,,,,,,,,,,,,,,,,,,left,0,2.99997532554,,,001,3.0.3,60.063604583168456,ninosDelConv2,2019_May_09_0802,98,
,,,5,0,106.0,29,,,,,0,47,47,43,,,,,,,,,,,,,,,,,,right,1,2.23329166044,,,001,3.0.3,60.063604583168456,ninosDelConv2,2019_May_09_0802,98,
,,,10,0,60.0,29,,,,,0,48,48,12,,,,,,,,,,,,,,,,,,right,1,4.64941737009,,,001,3.0.3,60.063604583168456,ninosDelConv2,2019_May_09_0802,98,
,,,25,0,150.0,29,,,,,0,49,49,74,,,,,,,,,,,,,,,,,,left,1,2.06658352725,,,001,3.0.3,60.063604583168456,ninosDelConv2,2019_May_09_0802,98,
,,,5,0,149.0,10,,,,,0,50,50,39,,,,,,,,,,,,,,,,,,left,1,1.13313878048,,,001,3.0.3,60.063604583168456,ninosDelConv2,2019_May_09_0802,98,
,,,5,0,35.0,150,,,,,0,51,51,56,,,,,,,,,,,,,,,,,,left,0,2.95025281236,,,001,3.0.3,60.063604583168456,ninosDelConv2,2019_May_09_0802,98,
,,,10,0,61.0,89,,,,,0,52,52,22,,,,,,,,,,,,,,,,,,left,0,4.66645470448,,,001,3.0.3,60.063604583168456,ninosDelConv2,2019_May_09_0802,98,
,,,5,0,106.0,152,,,,,0,53,53,58,,,,,,,,,,,,,,,,,,left,1,5.03280546702,,,001,3.0.3,60.063604583168456,ninosDelConv2,2019_May_09_0802,98,
,,,5,0,15.0,91,,,,,0,54,54,50,,,,,,,,,,,,,,,,,,right,0,4.16614318732,,,001,3.0.3,60.063604583168456,ninosDelConv2,2019_May_09_0802,98,
,,,5,0,14.0,149,,,,,0,55,55,55,,,,,,,,,,,,,,,,,,right,0,4.28251142707,,,001,3.0.3,60.063604583168456,ninosDelConv2,2019_May_09_0802,98,
,,,5,0,104.0,10,,,,,0,56,56,38,,,,,,,,,,,,,,,,,,right,1,2.29983560508,,,001,3.0.3,60.063604583168456,ninosDelConv2,2019_May_09_0802,98,
,,,25,0,75.0,31,,,,,0,57,57,72,,,,,,,,,,,,,,,,,,right,1,1.99989256263,,,001,3.0.3,60.063604583168456,ninosDelConv2,2019_May_09_0802,98,
,,,25,0,150.0,150,,,,,0,58,58,89,,,,,,,,,,,,,,,,,,left,1,3.63318196125,,,001,3.0.3,60.063604583168456,ninosDelConv2,2019_May_09_0802,98,
,,,10,0,19.0,11,,,,,0,59,59,5,,,,,,,,,,,,,,,,,,left,1,3.31706314022,,,001,3.0.3,60.063604583168456,ninosDelConv2,2019_May_09_0802,98,
,,,25,0,150.0,61,,,,,0,60,60,79,,,,,,,,,,,,,,,,,,left,1,0.866895147134,,,001,3.0.3,60.063604583168456,ninosDelConv2,2019_May_09_0802,98,
,,,5,0,105.0,60,,,,,0,61,61,48,,,,,,,,,,,,,,,,,,right,1,0.767751871608,,,001,3.0.3,60.063604583168456,ninosDelConv2,2019_May_09_0802,98,
,,,25,0,55.0,90,,,,,0,62,62,81,,,,,,,,,,,,,,,,,,right,1,1.86624075472,,,001,3.0.3,60.063604583168456,ninosDelConv2,2019_May_09_0802,98,
,,,25,0,55.0,151,,,,,0,63,63,86,,,,,,,,,,,,,,,,,,right,0,2.49983498827,,,001,3.0.3,60.063604583168456,ninosDelConv2,2019_May_09_0802,98,
,,,5,0,35.0,89,,,,,0,64,64,51,,,,,,,,,,,,,,,,,,left,1,3.73333381303,,,001,3.0.3,60.063604583168456,ninosDelConv2,2019_May_09_0802,98,
,,,25,0,125.0,149,,,,,0,65,65,88,,,,,,,,,,,,,,,,,,right,0,3.54983766098,,,001,3.0.3,60.063604583168456,ninosDelConv2,2019_May_09_0802,98,
,,,25,0,75.0,59,,,,,0,66,66,77,,,,,,,,,,,,,,,,,,left,1,1.58389999345,,,001,3.0.3,60.063604583168456,ninosDelConv2,2019_May_09_0802,98,
,,,25,0,125.0,4,,,,,0,67,67,63,,,,,,,,,,,,,,,,,,left,1,0.733277267311,,,001,3.0.3,60.063604583168456,ninosDelConv2,2019_May_09_0802,98,
,,,10,0,20.0,59,,,,,0,68,68,15,,,,,,,,,,,,,,,,,,left,0,1.75033670617,,,001,3.0.3,60.063604583168456,ninosDelConv2,2019_May_09_0802,98,
,,,25,0,125.0,59,,,,,0,69,69,78,,,,,,,,,,,,,,,,,,left,1,1.74998252233,,,001,3.0.3,60.063604583168456,ninosDelConv2,2019_May_09_0802,98,
,,,10,0,39.0,59,,,,,0,70,70,16,,,,,,,,,,,,,,,,,,right,0,3.78301263135,,,001,3.0.3,60.063604583168456,ninosDelConv2,2019_May_09_0802,98,
,,,5,0,151.0,4,,,,,0,71,71,34,,,,,,,,,,,,,,,,,,left,1,0.767544707283,,,001,3.0.3,60.063604583168456,ninosDelConv2,2019_May_09_0802,98,
,,,25,0,75.0,90,,,,,0,72,72,82,,,,,,,,,,,,,,,,,,left,1,1.55014198227,,,001,3.0.3,60.063604583168456,ninosDelConv2,2019_May_09_0802,98,
,,,10,0,10.01,150,,,,,0,73,73,25,,,,,,,,,,,,,,,,,,right,0,1.1999916723,,,001,3.0.3,60.063604583168456,ninosDelConv2,2019_May_09_0802,98,
,,,5,0,15.0,61,,,,,0,74,74,45,,,,,,,,,,,,,,,,,,right,0,4.78318483988,,,001,3.0.3,60.063604583168456,ninosDelConv2,2019_May_09_0802,98,
,,,25,0,150.0,4,,,,,0,75,75,64,,,,,,,,,,,,,,,,,,right,1,0.950370016973,,,001,3.0.3,60.063604583168456,ninosDelConv2,2019_May_09_0802,98,
,,,10,0,20.0,90,,,,,0,76,76,20,,,,,,,,,,,,,,,,,,left,0,2.56652389653,,,001,3.0.3,60.063604583168456,ninosDelConv2,2019_May_09_0802,98,
,,,5,0,104.0,90,,,,,0,77,77,53,,,,,,,,,,,,,,,,,,right,1,1.20010579238,,,001,3.0.3,60.063604583168456,ninosDelConv2,2019_May_09_0802,98,
,,,10,0,39.0,6,,,,,0,78,78,1,,,,,,,,,,,,,,,,,,right,1,0.80022474518,,,001,3.0.3,60.063604583168456,ninosDelConv2,2019_May_09_0802,98,
,,,10,0,59.0,9,,,,,0,79,79,7,,,,,,,,,,,,,,,,,,right,1,0.700178788509,,,001,3.0.3,60.063604583168456,ninosDelConv2,2019_May_09_0802,98,
,,,10,0,39.0,150,,,,,0,80,80,26,,,,,,,,,,,,,,,,,,right,0,2.49975993577,,,001,3.0.3,60.063604583168456,ninosDelConv2,2019_May_09_0802,98,
,,,10,0,39.0,29,,,,,0,81,81,11,,,,,,,,,,,,,,,,,,right,0,6.11587988771,,,001,3.0.3,60.063604583168456,ninosDelConv2,2019_May_09_0802,98,
,,,25,0,35.0,11,,,,,0,82,82,65,,,,,,,,,,,,,,,,,,left,1,1.06677783979,,,001,3.0.3,60.063604583168456,ninosDelConv2,2019_May_09_0802,98,
,,,10,0,40.0,91,,,,,0,83,83,21,,,,,,,,,,,,,,,,,,right,0,1.79996925918,,,001,3.0.3,60.063604583168456,ninosDelConv2,2019_May_09_0802,98,
,,,10,0,109.0,149,,,,,0,84,84,28,,,,,,,,,,,,,,,,,,left,0,2.45000452362,,,001,3.0.3,60.063604583168456,ninosDelConv2,2019_May_09_0802,98,
,,,10,0,149.0,61,,,,,0,85,85,19,,,,,,,,,,,,,,,,,,left,1,3.1830540644,,,001,3.0.3,60.063604583168456,ninosDelConv2,2019_May_09_0802,98,
,,,10,0,60.0,60,,,,,0,86,86,17,,,,,,,,,,,,,,,,,,right,1,3.41587947682,,,001,3.0.3,60.063604583168456,ninosDelConv2,2019_May_09_0802,98,
,,,10,0,150.0,30,,,,,0,87,87,14,,,,,,,,,,,,,,,,,,left,1,1.76777449017,,,001,3.0.3,60.063604583168456,ninosDelConv2,2019_May_09_0802,98,
,,,5,0,56.0,9,,,,,0,88,88,37,,,,,,,,,,,,,,,,,,right,1,1.35006394843,,,001,3.0.3,60.063604583168456,ninosDelConv2,2019_May_09_0802,98,
,,,25,0,150.0,9,,,,,0,89,89,69,,,,,,,,,,,,,,,,,,right,1,0.534027890768,,,001,3.0.3,60.063604583168456,ninosDelConv2,2019_May_09_0802,98,
,,,,,,,,,,,,,,,,,,,,,,,,,,,,,,,,,,,right,6.46575929085,001,3.0.3,60.063604583168456,ninosDelConv2,2019_May_09_0802,98,
